timestamp,timestamp_sample,ref_timestamp,ref_lat,ref_lon,x,y,z,delta_xy[0],delta_xy[1],delta_z,vx,vy,vz,z_deriv,delta_vxy[0],delta_vxy[1],delta_vz,ax,ay,az,heading,heading_var,unaided_heading,delta_heading,tilt_var,ref_alt,dist_bottom,eph,epv,evh,evv,vxy_max,vz_max,hagl_min,hagl_max,xy_valid,z_valid,v_xy_valid,v_z_valid,xy_reset_counter,z_reset_counter,vxy_reset_counter,vz_reset_counter,heading_reset_counter,heading_good_for_control,xy_global,z_global,dist_bottom_valid,dist_bottom_sensor_bitfield,dead_reckoning
630561643,630561189,0,nan,nan,0.24577405,2.8060439,-0.72720265,-0.0010376364,0.005591696,0.42343825,-0.0013261014,-0.0011369663,0.020007346,0.0006942547,-0.0031508233,0.0006665007,-0.00011949052,-0.005320459,0.14187664,-0.0011392707,1.5555334,0.00040044027,-0.0020198966,1.5666031,3.372691e-05,nan,0.096277714,0.055908136,0.035955876,0.07015526,0.038629875,inf,inf,inf,inf,1,1,1,1,4,2,3,1,1,1,0,0,1,0,0
630571686,630571216,0,nan,nan,0.24579875,2.8060727,-0.7272029,-0.0010376364,0.005591696,0.42343825,-0.0038353857,-0.0015796181,0.019952988,0.0006639649,-0.0031508233,0.0006665007,-0.00011949052,-0.37951887,0.06270355,-0.02846035,1.5554323,0.0004006326,-0.0021197298,1.5666031,3.3794066e-05,nan,0.09645015,0.056423973,0.03621829,0.0705892,0.038791478,inf,inf,inf,inf,1,1,1,1,4,2,3,1,1,1,0,0,1,0,0
630671642,630671188,0,nan,nan,0.24606219,2.8063178,-0.72711766,-0.0010376364,0.005591696,0.42343825,-0.0010550407,-0.0015282156,0.019091986,0.0001553881,-0.0031508233,0.0006665007,-0.00011949052,0.32880738,0.18798904,-0.07886014,1.5550042,0.00040062712,-0.0025361609,1.5666031,3.3561613e-05,nan,0.096318066,0.055937648,0.036060646,0.069428325,0.03840418,inf,inf,inf,inf,1,1,1,1,4,2,3,1,1,1,0,0,1,0,0
630761641,630761187,0,nan,nan,0.24648523,2.8065925,-0.7270214,-0.0010376364,0.005591696,0.42343825,-0.00020678235,-0.0018790901,0.020116601,0.001460734,-0.0031508233,0.0006665007,-0.00011949052,0.1372281,0.02961185,0.010716738,1.555326,0.00040074863,-0.0022027867,1.5666031,3.3705874e-05,nan,0.09612501,0.055872228,0.035947397,0.07005515,0.038596906,inf,inf,inf,inf,1,1,1,1,4,2,3,1,1,1,0,0,1,0,0
630861645,630861188,0,nan,nan,0.24701755,2.8069897,-0.7268618,-0.0010376364,0.005591696,0.42343825,0.0009360581,-0.0013007853,0.019966628,0.001659776,-0.0031508233,0.0006665007,-0.00011949052,0.13305928,0.13043919,0.032263294,1.5554227,0.0004023522,-0.00209094,1.5666031,3.389406e-05,nan,0.09728736,0.060106788,0.038291004,0.071982495,0.03940901,inf,inf,inf,inf,1,1,1,1,4,2,3,1,1,1,0,0,1,0,0
630971647,630971191,0,nan,nan,0.24752502,2.8073347,-0.72610366,-0.0010376364,0.005591696,0.42343825,-0.00041636341,-0.0012266776,0.020513192,0.0030875097,-0.0031508233,0.0006665007,-0.00011949052,0.008556939,0.0503429,0.010273235,1.5556822,0.0004044802,-0.0018125942,1.5666031,3.4638844e-05,nan,0.09869075,0.06638498,0.041430615,0.07673981,0.041119397,inf,inf,inf,inf,1,1,1,1,4,2,3,1,1,1,0,0,1,0,0
631061729,631061190,0,nan,nan,0.24784397,2.8075118,-0.72499037,-0.0010376364,0.005591696,0.42343825,-0.0007322754,-0.0019082116,0.021558767,0.0051613245,-0.0031508233,0.0006665007,-0.00011949052,-0.032369774,-0.029025298,0.06584476,1.5556071,0.00040589922,-0.001879506,1.5666031,3.4616605e-05,nan,0.09874129,0.07022673,0.043653123,0.07756263,0.04154365,inf,inf,inf,inf,1,1,1,1,4,2,3,1,1,1,0,0,1,0,0
631171789,631171212,0,nan,nan,0.24810731,2.807631,-0.7233231,-0.0010376364,0.005591696,0.42343825,-0.0017761635,-0.0012924786,0.022640329,0.007502938,-0.0031508233,0.0006665007,-0.00011949052,-0.032863587,0.041764293,-0.047301628,1.555448,0.00040804103,-0.0020453483,1.5666031,3.536768e-05,nan,0.09945279,0.077268824,0.04709923,0.08232188,0.043170486,inf,inf,inf,inf,1,1,1,1,4,2,3,1,1,1,0,0,1,0,1
631261836,631261221,0,nan,nan,0.24824877,2.8076625,-0.72156745,-0.0010376364,0.005591696,0.42343825,-0.0016598867,-0.0019089634,0.023823809,0.009882242,-0.0031508233,0.0006665007,-0.00011949052,0.11623032,-0.0803135,0.01484989,1.5554425,0.00040946834,-0.0020565856,1.5666031,3.5981015e-05,nan,0.09984845,0.08347718,0.050073326,0.08624187,0.044458173,inf,inf,inf,inf,1,1,1,1,4,2,3,1,1,1,0,0,1,0,1
631371766,631371190,0,nan,nan,0.24840334,2.807655,-0.71939933,-0.0010376364,0.005591696,0.42343825,-0.0012788324,-0.0020226757,0.024340633,0.011566261,-0.0031508233,0.0006665007,-0.00011949052,-0.12396327,-0.22899173,-0.048406005,1.5554159,0.00041162584,-0.002073861,1.5666031,3.5944824e-05,nan,0.0993225,0.08866798,0.053078726,0.08720977,0.04495075,inf,inf,inf,inf,1,1,1,1,4,2,3,1,1,1,0,0,1,0,1
631461792,631461188,0,nan,nan,0.24846393,2.807605,-0.7172927,-0.0010376364,0.005591696,0.42343825,-1.8354129e-05,-0.0019732716,0.02467167,0.012985841,-0.0031508233,0.0006665007,-0.00011949052,0.23295985,0.052106343,-0.103520736,1.5553889,0.00041306042,-0.0020934977,1.5666031,3.656311e-05,nan,0.09965491,0.095368676,0.05623583,0.09113532,0.046189643,inf,inf,inf,inf,1,1,1,1,4,2,3,1,1,1,0,0,1,0,1
631571746,631571188,0,nan,nan,0.24856405,2.807533,-0.71483505,-0.0010376364,0.005591696,0.42343825,-0.00043981563,-0.0020548967,0.026582146,0.015841788,-0.0031508233,0.0006665007,-0.00011949052,-0.21578886,0.18221015,0.067747615,1.5555458,0.00041523305,-0.001937383,1.5666031,3.638523e-05,nan,0.09879351,0.100273155,0.059258875,0.09139712,0.046491656,inf,inf,inf,inf,1,1,1,1,4,2,3,1,1,1,0,0,1,0,1
631671621,631671188,0,nan,nan,0.2551705,2.809637,-0.7042056,0.006537527,0.0022089481,0.008081913,-0.000118490665,-0.0012412253,0.027969945,0.01820488,-0.0031508233,0.0006665007,-0.00011949052,-0.20363542,0.2280369,0.055867743,1.5555333,0.00041687262,-0.0019531895,1.5666031,3.7078054e-05,nan,0.09899098,0.14143415,0.10000453,0.09575974,0.047822397,inf,inf,inf,inf,1,1,1,1,5,3,3,1,1,1,0,0,1,0,0
631761628,631761187,0,nan,nan,0.2524888,2.8078113,-0.70323914,-0.0027139783,-0.0017104149,0.008081913,-0.001679336,-0.0036388638,0.027161123,0.0167621,-0.0031508233,0.0006665007,-0.00011949052,-0.005704872,-0.15361571,0.013941861,1.555573,0.00041866195,-0.0019183108,1.5666031,3.6637146e-05,nan,0.08099502,0.14142448,0.070751816,0.094471276,0.047665395,inf,inf,inf,inf,1,1,1,1,6,3,3,1,1,1,0,0,1,0,0
631871692,631871188,0,nan,nan,0.2523619,2.8076565,-0.7076113,-0.0027139783,-0.0017104149,0.008081913,-0.0011327408,-0.0026895194,0.027469663,0.011084628,-0.0031508233,0.0006665007,-0.00011949052,-0.07624696,0.23817883,-0.014031232,1.5554851,0.00041875138,-0.0020088877,1.5666031,3.738612e-05,nan,0.08083552,0.100227326,0.057990927,0.099155985,0.04902594,inf,inf,inf,inf,1,1,1,1,6,3,3,1,1,1,0,0,1,0,0
631961630,631961188,0,nan,nan,0.25201854,2.8076558,-0.7113315,-0.0027139783,-0.0017104149,0.008081913,-0.0007594136,-0.0025268483,0.028122824,0.007061324,-0.0031508233,0.0006665007,-0.00011949052,0.0468027,0.07376451,-0.09677275,1.5555031,0.00041878625,-0.0019877774,1.5666031,3.677814e-05,nan,0.08137953,0.082285024,0.0505297,0.096952915,0.048604425,inf,inf,inf,inf,1,1,1,1,6,3,3,1,1,1,0,0,1,0,0
632071648,632071212,0,nan,nan,0.25145173,2.80782,-0.71537477,-0.0027139783,-0.0017104149,0.008081913,-0.00064534735,-0.0029073963,0.028669825,0.0029405097,-0.0031508233,0.0006665007,-0.00011949052,0.15365846,-0.17093645,0.12347149,1.5554812,0.00041922004,-0.0020021566,1.5666031,3.7423713e-05,nan,0.08501035,0.07253266,0.045877278,0.10106048,0.04975801,inf,inf,inf,inf,1,1,1,1,6,3,3,1,1,1,0,0,1,0,0
632161657,632161211,0,nan,nan,0.25100133,2.8079908,-0.7178193,-0.0027139783,-0.0017104149,0.008081913,-0.001053049,-0.0021820592,0.028417489,5.7572208e-05,-0.0031508233,0.0006665007,-0.00011949052,0.10684771,0.01750756,0.054975286,1.555467,0.00041890575,-0.002008728,1.5666031,3.6639074e-05,nan,0.08703023,0.06605124,0.04250877,0.0977696,0.04902943,inf,inf,inf,inf,1,1,1,1,6,3,3,1,1,1,0,0,1,0,0
632271616,632271188,0,nan,nan,0.25041592,2.8081572,-0.71989185,-0.0027139783,-0.0017104149,0.008081913,-0.00089315476,-0.003439447,0.028062016,-0.0022563695,-0.0031508233,0.0006665007,-0.00011949052,0.08949068,-0.19314882,0.00011039472,1.5554705,0.00041933818,-0.0019963076,1.5666031,3.7123587e-05,nan,0.08957124,0.06285324,0.040545385,0.10092958,0.04991219,inf,inf,inf,inf,1,1,1,1,6,3,3,1,1,1,0,0,1,0,0
632371669,632371212,0,nan,nan,0.24981931,2.8082616,-0.7211676,-0.0027139783,-0.0017104149,0.008081913,-0.0020745115,-0.0021294195,0.029164588,-0.0020977485,-0.0031508233,0.0006665007,-0.00011949052,-0.05536039,0.0219166,0.1266147,1.5554748,0.00041922161,-0.0019837713,1.5666031,3.629432e-05,nan,0.09106445,0.06030182,0.03901496,0.097070724,0.04900838,inf,inf,inf,inf,1,1,1,1,6,3,3,1,1,1,0,0,1,0,0
632461670,632461220,0,nan,nan,0.24925382,2.8084173,-0.7218378,-0.0027139783,-0.0017104149,0.008081913,-0.0031269777,-0.0020221372,0.028317392,-0.0031612455,-0.0031508233,0.0006665007,-0.00011949052,-0.07882997,0.14366373,-0.044346005,1.5554672,0.00041925345,-0.0019839164,1.5666031,3.647944e-05,nan,0.09226376,0.058996376,0.037975542,0.09830651,0.049339805,inf,inf,inf,inf,1,1,1,1,6,3,3,1,1,1,0,0,1,0,0
632571631,632571188,0,nan,nan,0.24859416,2.8084912,-0.7223457,-0.0027139783,-0.0017104149,0.008081913,-0.0025483153,-0.00253067,0.02698198,-0.0043151802,-0.0031508233,0.0006665007,-0.00011949052,-0.10951447,0.123986565,-0.14719763,1.5554432,0.0004193348,-0.0019997307,1.5666031,3.570232e-05,nan,0.09317744,0.05839163,0.037512593,0.09422088,0.048313893,inf,inf,inf,inf,1,1,1,1,6,3,3,1,1,1,0,0,1,0,0
632661626,632661188,0,nan,nan,0.24818635,2.8083973,-0.7225721,-0.0027139783,-0.0017104149,0.008081913,-0.0033313252,-0.003804429,0.026526326,-0.0043345517,-0.0031508233,0.0006665007,-0.00011949052,-0.13897432,-0.07789633,-0.052755307,1.5554419,0.00041936472,-0.0019935442,1.5666031,3.5779012e-05,nan,0.09379661,0.058182932,0.03710502,0.09452652,0.04837589,inf,inf,inf,inf,1,1,1,1,6,3,3,1,1,1,0,0,1,0,0
632771628,632771189,0,nan,nan,0.24782929,2.8080206,-0.72280437,-0.0027139783,-0.0017104149,0.008081913,-0.0027077126,-0.0038061154,0.025173727,-0.005029416,-0.0031508233,0.0006665007,-0.00011949052,0.074647136,0.25124872,-0.08031026,1.5555304,0.00041944545,-0.0018968058,1.5666031,3.507311e-05,nan,0.094083846,0.058112036,0.03707292,0.09024095,0.04719291,inf,inf,inf,inf,1,1,1,1,6,3,3,1,1,1,0,0,1,0,0
632861784,632861196,0,nan,nan,0.24774003,2.8077042,-0.7229698,-0.0027139783,-0.0017104149,0.008081913,-0.0024671662,-0.0038921316,0.02455707,-0.0050006495,-0.0031508233,0.0006665007,-0.00011949052,0.06721493,-0.05932434,-0.044509687,1.5555042,0.00041947252,-0.001915276,1.5666031,3.508196e-05,nan,0.094295084,0.058148228,0.03691464,0.08976948,0.047003724,inf,inf,inf,inf,1,1,1,1,6,3,3,1,1,1,0,0,1,0,0
632971660,632971211,0,nan,nan,0.24768372,2.8074458,-0.7233496,-0.0027139783,-0.0017104149,0.008081913,-0.0032730082,-0.0042919437,0.023765549,-0.005144735,-0.0031508233,0.0006665007,-0.00011949052,-0.1992716,0.061178204,0.14253555,1.5554898,0.00041955113,-0.0019188165,1.5666031,3.4506622e-05,nan,0.09439832,0.05817057,0.037048705,0.085721105,0.04577883,inf,inf,inf,inf,1,1,1,1,6,3,3,1,1,1,0,0,1,0,0
633071625,633071188,0,nan,nan,0.24754184,2.8074188,-0.723859,-0.0027139783,-0.0017104149,0.008081913,-0.0027259365,-0.002998063,0.022575779,-0.005836063,-0.0031508233,0.0006665007,-0.00011949052,0.08903219,0.15619375,0.13595429,1.5554616,0.00041977694,-0.0019367595,1.5666031,3.4619152e-05,nan,0.09471899,0.058941547,0.03732525,0.08555967,0.04567043,inf,inf,inf,inf,1,1,1,1,6,3,3,1,1,1,0,0,1,0,0
633161711,633161187,0,nan,nan,0.2472902,2.8075764,-0.7243293,-0.0027139783,-0.0017104149,0.008081913,-0.001814174,-0.0037585062,0.022736838,-0.0051707495,-0.0031508233,0.0006665007,-0.00011949052,0.1947167,-0.1724925,-0.021263825,1.555436,0.00041945634,-0.001954499,1.5666031,3.4034616e-05,nan,0.094542146,0.057689264,0.036892273,0.08112893,0.044198915,inf,inf,inf,inf,1,1,1,1,6,3,3,1,1,1,0,0,1,0,0
633271654,633271211,0,nan,nan,0.24691398,2.807998,-0.7250383,-0.0027139783,-0.0017104149,0.008081913,-0.0011046834,-0.002836028,0.021548485,-0.005874001,-0.0031508233,0.0006665007,-0.00011949052,-0.19386731,-0.015118638,-0.06840395,1.5554606,0.0004198789,-0.0019227695,1.5666031,3.424427e-05,nan,0.09512937,0.058921214,0.037457995,0.08134454,0.04419851,inf,inf,inf,inf,1,1,1,1,6,3,3,1,1,1,0,0,1,0,0
633361658,633361211,0,nan,nan,0.24657024,2.8083563,-0.7255554,-0.0027139783,-0.0017104149,0.008081913,-0.0016998914,-0.0029753523,0.020575311,-0.006334855,-0.0031508233,0.0006665007,-0.00011949052,0.05988151,0.032200452,-0.062467508,1.5554543,0.00041955788,-0.0019236527,1.5666031,3.428851e-05,nan,0.09539133,0.05887313,0.037407577,0.08057147,0.043846194,inf,inf,inf,inf,1,1,1,1,6,3,3,1,1,1,0,0,1,0,0
633471659,633471188,0,nan,nan,0.24616876,2.8087082,-0.72635734,-0.0027139783,-0.0017104149,0.008081913,-0.0036421502,-0.002446404,0.019071344,-0.007354957,-0.0031508233,0.0006665007,-0.00011949052,-0.033757444,0.0089987265,-0.0748258,1.5554358,0.0004199786,-0.0019369054,1.5666031,3.4019104e-05,nan,0.09580284,0.058690835,0.03751041,0.07781312,0.04284785,inf,inf,inf,inf,1,1,1,1,6,3,3,1,1,1,0,0,1,0,0
633561640,633561192,0,nan,nan,0.24597707,2.8089852,-0.72694606,-0.0027139783,-0.0017104149,0.008081913,-0.0038597663,-0.0017963663,0.019410012,-0.006476036,-0.0031508233,0.0006665007,-0.00011949052,-0.08537933,-0.039010387,0.09114985,1.5554515,0.00041965628,-0.001913832,1.5666031,3.4106553e-05,nan,0.096071124,0.05853595,0.03741165,0.07726433,0.042546034,inf,inf,inf,inf,1,1,1,1,6,3,3,1,1,1,0,0,1,0,0
633671629,633671188,0,nan,nan,0.24597807,2.8092132,-0.72787976,-0.0027139783,-0.0017104149,0.008081913,-0.002160155,-0.003276608,0.016215865,-0.009138218,-0.0031508233,0.0006665007,-0.00011949052,0.21726598,-0.2459423,-0.03760686,1.5554516,0.00042007546,-0.0019065454,1.5666031,3.3913806e-05,nan,0.09668785,0.058316734,0.037470758,0.075061284,0.041691713,inf,inf,inf,inf,1,1,1,1,6,3,3,1,1,1,0,0,1,0,0
633771626,633771188,0,nan,nan,0.2460669,2.8093286,-0.72862375,-0.0027139783,-0.0017104149,0.008081913,-0.0029084242,-0.0022751675,0.016241502,-0.008436815,-0.0031508233,0.0006665007,-0.00011949052,0.17536093,-0.1579338,0.2355073,1.5554514,0.0004199498,-0.0018974601,1.5666031,3.4103814e-05,nan,0.09772515,0.058659326,0.037618153,0.07519064,0.041616585,inf,inf,inf,inf,1,1,1,1,6,3,3,1,1,1,0,0,1,0,0
633861653,633861188,0,nan,nan,0.2462406,2.8094637,-0.72913265,-0.0027139783,-0.0017104149,0.008081913,-0.0022312885,-0.0016494995,0.016214924,-0.0077867657,-0.0031508233,0.0006665007,-0.00011949052,-0.28657085,-0.02223077,-0.14611581,1.5553986,0.00041996993,-0.0019403371,1.5666031,3.382427e-05,nan,0.09802103,0.057331987,0.037069604,0.07262407,0.040597126,inf,inf,inf,inf,1,1,1,1,6,3,3,1,1,1,0,0,1,0,0
633971708,633971188,0,nan,nan,0.24654396,2.809618,-0.7294921,-0.0027139783,-0.0017104149,0.008081913,-0.0027312057,-0.00037534678,0.016787164,-0.006205726,-0.0031508233,0.0006665007,-0.00011949052,-0.18129587,0.28865665,0.18555802,1.5554147,0.00042004173,-0.0019134703,1.5666031,3.409088e-05,nan,0.098483086,0.058084916,0.037424326,0.07331903,0.040723052,inf,inf,inf,inf,1,1,1,1,6,3,3,1,1,1,0,0,1,0,0
634061810,634061188,0,nan,nan,0.24689706,2.8096995,-0.7297231,-0.0027139783,-0.0017104149,0.008081913,-0.0005978731,-0.00085464463,0.015147028,-0.0070805214,-0.0031508233,0.0006665007,-0.00011949052,-0.15018697,0.24082926,0.023642737,1.5554208,0.00042005884,-0.0018990422,1.5666031,3.3826956e-05,nan,0.0985201,0.05674283,0.03683943,0.07103601,0.039794214,inf,inf,inf,inf,1,1,1,1,6,3,3,1,1,1,0,0,1,0,0
634171648,634171211,0,nan,nan,0.24737087,2.8095448,-0.7299347,-0.0027139783,-0.0017104149,0.008081913,-0.0028411243,-0.0010511922,0.014154838,-0.0071605463,-0.0031508233,0.0006665007,-0.00011949052,-0.070840575,0.38719478,-0.17980477,1.5554018,0.00042047256,-0.0019056645,1.5666031,3.4134137e-05,nan,0.09906888,0.05757508,0.037207782,0.07211497,0.04006115,inf,inf,inf,inf,1,1,1,1,6,3,3,1,1,1,0,0,1,0,0
634261674,634261218,0,nan,nan,0.24765192,2.8092906,-0.73001784,-0.0027139783,-0.0017104149,0.008081913,-0.0029151312,-0.0026723894,0.015953796,-0.0046429858,-0.0031508233,0.0006665007,-0.00011949052,-0.1400063,-0.32305926,-0.033318073,1.5553296,0.00042014458,-0.0019691552,1.5666031,3.38916e-05,nan,0.09897804,0.056385204,0.036670912,0.07021015,0.03927571,inf,inf,inf,inf,1,1,1,1,6,3,3,1,1,1,0,0,1,0,0
634371627,634371188,0,nan,nan,0.24761708,2.8088858,-0.7299255,-0.0027139783,-0.0017104149,0.008081913,-0.0042518,-0.0039222734,0.01516916,-0.0045476956,-0.0031508233,0.0006665007,-0.00011949052,0.08598521,-0.056850374,-0.1773248,1.5553768,0.0004205575,-0.0019133693,1.5666031,3.4204124e-05,nan,0.099267125,0.057219848,0.03702515,0.07146227,0.03961204,inf,inf,inf,inf,1,1,1,1,6,3,3,1,1,1,0,0,1,0,0
634471648,634471211,0,nan,nan,0.24737787,2.8085873,-0.7297602,-0.0027139783,-0.0017104149,0.008081913,-0.0037588433,-0.002011385,0.017342921,-0.0016491332,-0.0031508233,0.0006665007,-0.00011949052,-0.06640166,-0.20278989,-0.08669847,1.5554909,0.0004204272,-0.0017930388,1.5666031,3.4019984e-05,nan,0.098986566,0.056588113,0.036766734,0.070136786,0.03905828,inf,inf,inf,inf,1,1,1,1,6,3,3,1,1,1,0,0,1,0,0
634561656,634561211,0,nan,nan,0.24723835,2.808692,-0.7294472,-0.0027139783,-0.0017104149,0.008081913,-0.0057679266,8.00965e-05,0.018032353,-0.00032619017,-0.0031508233,0.0006665007,-0.00011949052,-0.02904677,0.12882483,0.109765925,1.5553136,0.0004204414,-0.0019659386,1.5666031,3.419728e-05,nan,0.09899962,0.056411438,0.036580555,0.07065879,0.039130576,inf,inf,inf,inf,1,1,1,1,6,3,3,1,1,1,0,0,1,0,0
634671626,634671188,0,nan,nan,0.24747714,2.8092647,-0.7289468,-0.0027139783,-0.0017104149,0.008081913,0.0053483457,-0.0016763345,0.015923036,-0.00168377,-0.0031508233,0.0006665007,-0.00011949052,0.7688163,0.083260514,0.44237727,1.5553988,0.000420852,-0.0018731751,1.5666031,3.4477926e-05,nan,0.09973633,0.05727367,0.036933042,0.071940415,0.03949223,inf,inf,inf,inf,1,1,1,1,6,3,3,1,1,1,0,0,0,0,0
634761620,634761188,0,nan,nan,0.24806958,2.8096666,-0.728886,-0.0027139783,-0.0017104149,0.008081913,0.0020246136,0.0017549078,0.017022628,-6.7004854e-05,-0.0031508233,0.0006665007,-0.00011949052,0.19663045,0.9435709,0.88557255,1.5552816,0.00042086473,-0.0019871974,1.5666031,3.4591427e-05,nan,0.09991485,0.05707692,0.036747042,0.072258584,0.039509594,inf,inf,inf,inf,1,1,1,1,6,3,3,1,1,1,0,0,0,0,0
634871628,634871188,0,nan,nan,0.24798477,2.810632,-0.7294168,-0.0027139783,-0.0017104149,0.008081913,-0.011746555,0.007837789,0.0027821187,-0.013875013,-0.0031508233,0.0006665007,-0.00011949052,0.8517391,-2.3509023,2.1299026,1.5553595,0.00042127437,-0.0019043382,1.5666031,3.4811383e-05,nan,0.100577176,0.057941563,0.037104264,0.0733719,0.039817598,inf,inf,inf,inf,1,1,1,1,6,3,3,1,1,1,0,0,0,0,0
634961645,634961188,0,nan,nan,0.24631798,2.8113163,-0.73121804,-0.0027139783,-0.0017104149,0.008081913,-0.014734627,0.0033222253,-0.012637196,-0.028996306,-0.0031508233,0.0006665007,-0.00011949052,1.8538187,0.10627227,0.6889185,1.5543388,0.00042128592,-0.00292486,1.5666031,3.486628e-05,nan,0.10237843,0.05770414,0.0369098,0.07351174,0.039786223,inf,inf,inf,inf,1,1,1,1,6,3,3,1,1,1,0,0,0,0,0
635071653,635071210,0,nan,nan,0.24353938,2.8119736,-0.7331964,-0.0027139783,-0.0017104149,0.008081913,-0.03411261,0.007183381,-0.004094038,-0.020237437,-0.0031508233,0.0006665007,-0.00011949052,-0.08579892,0.75808054,-0.19035986,1.5556718,0.0004216941,-0.0015818769,1.5666031,3.5031415e-05,nan,0.104356766,0.058544956,0.037264578,0.07449441,0.04004877,inf,inf,inf,inf,1,1,1,1,6,3,3,1,1,1,0,0,0,0,0
635171624,635171188,0,nan,nan,0.23913918,2.8122246,-0.7374673,-0.0027139783,-0.0017104149,0.008081913,-0.043533552,-0.022486152,-0.0620116,-0.07797719,-0.0031508233,0.0006665007,-0.00011949052,-0.121532895,-1.6528964,-0.4213946,1.5561894,0.00042190345,-0.0010606098,1.5666031,3.5104495e-05,nan,0.10862768,0.058817837,0.037337895,0.074880645,0.040136203,inf,inf,inf,inf,1,1,1,1,6,3,3,1,1,1,0,0,0,0,0
635261615,635261187,0,nan,nan,0.23644233,2.8108675,-0.74489313,-0.0027139783,-0.0017104149,0.008081913,-0.004449505,-0.031161979,-0.09347629,-0.109237656,-0.0031508233,0.0006665007,-0.00011949052,-0.8499776,-0.38593587,-1.1972706,1.5546502,0.00042191253,-0.0026603516,1.5666031,3.508733e-05,nan,0.11605352,0.05849787,0.03712789,0.07478798,0.040051207,inf,inf,inf,inf,1,1,1,1,6,3,3,1,1,1,0,0,0,0,0
635371647,635371211,0,nan,nan,0.23863034,2.8067007,-0.75336266,-0.0027139783,-0.0017104149,0.008081913,0.020879626,-0.024624923,-0.035343073,-0.050798677,-0.0031508233,0.0006665007,-0.00011949052,1.0437329,-0.27018398,0.540486,1.556592,0.00042231873,-0.00083521113,1.5666031,3.518813e-05,nan,0.12452304,0.059284918,0.037467465,0.07565527,0.04026214,inf,inf,inf,inf,1,1,1,1,6,3,3,1,1,1,0,0,0,0,0
635461639,635461211,0,nan,nan,0.23880488,2.8020241,-0.7568715,-0.0027139783,-0.0017104149,0.008081913,-0.057739183,-0.05365237,-0.0659764,-0.08100231,-0.0031508233,0.0006665007,-0.00011949052,-1.5904605,1.0867792,-1.5877337,1.5650376,0.00042232557,0.007664902,1.5666031,3.5134144e-05,nan,0.12803191,0.05891452,0.03724387,0.075495906,0.040150844,inf,inf,inf,inf,1,1,1,1,6,3,3,1,1,1,0,0,0,0,0
635571625,635571187,0,nan,nan,0.2331165,2.7954464,-0.76791054,-0.0027139783,-0.0017104149,0.008081913,-0.062838234,-0.054036435,-0.112911046,-0.1269985,-0.0031508233,0.0006665007,-0.00011949052,0.937517,1.5248209,0.20298162,1.5628923,0.00042273197,0.005461674,1.5666031,3.5202807e-05,nan,0.13907093,0.059660085,0.037572976,0.07588694,0.040340737,inf,inf,inf,inf,1,1,1,1,6,3,3,1,1,1,0,0,0,0,0
635661615,635661187,0,nan,nan,0.23012368,2.7910132,-0.77695215,-0.0027139783,-0.0017104149,0.008081913,-0.056823585,-0.054842655,-0.07056211,-0.08353275,-0.0031508233,0.0006665007,-0.00011949052,-0.84062785,-0.80037105,0.35070032,1.5634482,0.00042273803,0.0060071694,1.5666031,3.512376e-05,nan,0.14811254,0.059226673,0.037336085,0.07573079,0.040213067,inf,inf,inf,inf,1,1,1,1,6,3,3,1,1,1,0,0,0,0,0
635771625,635771188,0,nan,nan,0.23018427,2.7873962,-0.79202366,-0.0027139783,-0.0017104149,0.008081913,0.004781891,-0.03192107,-0.12847175,-0.1396224,-0.0031508233,0.0006665007,-0.00011949052,0.23913571,1.2259198,1.830894,1.5725669,0.00042314208,0.014972218,1.5666031,3.517219e-05,nan,0.16318405,0.059935715,0.03765492,0.076360606,0.040388584,inf,inf,inf,inf,1,1,1,1,6,3,3,1,1,1,0,0,0,0,0
635871654,635871187,0,nan,nan,0.23393683,2.7854416,-0.799359,-0.0027139783,-0.0017104149,0.008081913,-0.01813726,-0.06039762,-0.074893214,-0.08402697,-0.0031508233,0.0006665007,-0.00011949052,0.099932365,-0.7004863,0.49463832,1.586286,0.00042334246,0.028766116,1.5666031,3.514321e-05,nan,0.17051941,0.060041964,0.03768566,0.076425664,0.04040232,inf,inf,inf,inf,1,1,1,1,6,3,3,1,1,1,0,0,0,0,0
635961627,635961188,0,nan,nan,0.2342108,2.781083,-0.8053889,-0.0027139783,-0.0017104149,0.008081913,-0.04208325,-0.07469128,-0.08882548,-0.09576672,-0.0031508233,0.0006665007,-0.00011949052,-0.11724679,-1.1859701,-1.4298037,1.6000446,0.00042334184,0.04258824,1.5666031,3.5038494e-05,nan,0.17654932,0.05955569,0.03743212,0.07597416,0.040257614,inf,inf,inf,inf,1,1,1,1,6,3,3,1,1,1,0,0,0,0,0
636071662,636071190,0,nan,nan,0.23288685,2.7777746,-0.8119575,-0.0027139783,-0.0017104149,0.008081913,-0.08298763,-0.043408547,-0.09212996,-0.095589794,-0.0031508233,0.0006665007,-0.00011949052,0.33849165,1.059278,-0.7527725,1.610772,0.0004237429,0.05337545,1.5666031,3.5068006e-05,nan,0.18311787,0.060202144,0.03773691,0.07629542,0.04042016,inf,inf,inf,inf,1,1,1,1,6,3,3,1,1,1,0,0,0,0,0
636161772,636161190,0,nan,nan,0.23005591,2.7782884,-0.8166538,-0.0027139783,-0.0017104149,0.008081913,-0.07924793,-0.005299775,-0.07746262,-0.077781335,-0.0031508233,0.0006665007,-0.00011949052,-2.053277,1.1816835,-0.27195975,1.6093497,0.00042373975,0.05199524,1.5666031,3.493469e-05,nan,0.18781418,0.05957072,0.03743563,0.07569457,0.040229645,inf,inf,inf,inf,1,1,1,1,6,3,3,1,1,1,0,0,0,0,0
636271649,636271211,0,nan,nan,0.22716768,2.781268,-0.82036155,-0.0027139783,-0.0017104149,0.008081913,-0.05917614,-0.016378568,-0.086269975,-0.08157835,-0.0031508233,0.0006665007,-0.00011949052,1.0604652,-0.8678426,-1.1186165,1.6053941,0.0004241362,0.04806527,1.5666031,3.496765e-05,nan,0.19152194,0.06019909,0.03773444,0.076167025,0.040398896,inf,inf,inf,inf,1,1,1,1,6,3,3,1,1,1,0,0,0,0,0
636361651,636361210,0,nan,nan,0.2273005,2.7834365,-0.8228692,-0.0027139783,-0.0017104149,0.008081913,-0.03608121,-0.016213147,-0.08896488,-0.0799072,-0.0031508233,0.0006665007,-0.00011949052,0.18827455,0.47502705,-0.39645255,1.5982269,0.00042413003,0.040877074,1.5666031,3.486307e-05,nan,0.19402957,0.05965981,0.03747008,0.075686656,0.040254213,inf,inf,inf,inf,1,1,1,1,6,3,3,1,1,1,0,0,0,0,0
636471618,636471188,0,nan,nan,0.2310353,2.786087,-0.8263316,-0.0027139783,-0.0017104149,0.008081913,-0.008663204,-0.015426952,-0.101467684,-0.08667466,-0.0031508233,0.0006665007,-0.00011949052,-1.2689788,-0.6613283,0.85187733,1.5892541,0.0004245239,0.031813987,1.5666031,3.4895325e-05,nan,0.197492,0.06026811,0.037764825,0.07612959,0.040415056,inf,inf,inf,inf,1,1,1,1,6,3,3,1,1,1,0,0,0,0,0
636571647,636571211,0,nan,nan,0.23661429,2.7896059,-0.8305453,-0.0027139783,-0.0017104149,0.008081913,0.02422406,0.008245636,-0.13015129,-0.11020063,-0.0031508233,0.0006665007,-0.00011949052,0.77940965,1.7769749,-0.8060926,1.5806383,0.00042471703,0.023066208,1.5666031,3.4859633e-05,nan,0.2017057,0.060289755,0.037777543,0.07609785,0.04041984,inf,inf,inf,inf,1,1,1,1,6,3,3,1,1,1,0,0,0,0,0
636661658,636661211,0,nan,nan,0.24451268,2.7942317,-0.83579135,-0.0027139783,-0.0017104149,0.008081913,0.054958675,0.020192467,-0.16952182,-0.14506961,-0.0031508233,0.0006665007,-0.00011949052,1.1931719,-0.66764426,-2.1383011,1.5688324,0.00042471098,0.011320223,1.5666031,3.475622e-05,nan,0.20695174,0.059728336,0.03750416,0.07565749,0.04026766,inf,inf,inf,inf,1,1,1,1,6,3,3,1,1,1,0,0,0,0,0
636771620,636771189,0,nan,nan,0.25948247,2.7994804,-0.8477648,-0.0027139783,-0.0017104149,0.008081913,0.12711549,0.0071050473,-0.24166675,-0.21174014,-0.0031508233,0.0006665007,-0.00011949052,1.6117775,-1.0840918,-1.1981276,1.5519626,0.00042510877,-0.005401334,1.5666031,3.4789853e-05,nan,0.21892518,0.060320534,0.03779527,0.07617391,0.040427115,inf,inf,inf,inf,1,1,1,1,6,3,3,1,1,1,0,0,0,0,0
636861639,636861188,0,nan,nan,0.27591914,2.8034282,-0.8653009,-0.0027139783,-0.0017104149,0.008081913,0.14471295,0.022640528,-0.3010252,-0.26702672,-0.0031508233,0.0006665007,-0.00011949052,-2.2498548,1.0281557,-0.34782028,1.5396993,0.0004251065,-0.017246008,1.5666031,3.46869e-05,nan,0.23646128,0.059753213,0.03751865,0.07582795,0.040274248,inf,inf,inf,inf,1,1,1,1,6,3,3,1,1,1,0,0,0,0,0
636971616,636971187,0,nan,nan,0.2980592,2.8096647,-0.88681114,-0.0027139783,-0.0017104149,0.008081913,0.17139883,0.031873755,-0.27137935,-0.2326462,-0.0031508233,0.0006665007,-0.00011949052,-0.67356515,-0.44456434,1.6403604,1.5305575,0.0004255072,-0.025792575,1.5666031,3.4719247e-05,nan,0.25797153,0.060350906,0.037807684,0.07649712,0.040432286,inf,inf,inf,inf,1,1,1,1,6,3,3,1,1,1,0,0,0,0,0
637061629,637061187,0,nan,nan,0.31666246,2.8135695,-0.901865,-0.0027139783,-0.0017104149,0.008081913,0.17613254,0.022093304,-0.22091018,-0.17885897,-0.0031508233,0.0006665007,-0.00011949052,0.41869769,1.0534352,1.0265845,1.525967,0.00042549986,-0.030503577,1.5666031,3.461109e-05,nan,0.2730254,0.059794545,0.03752878,0.076145485,0.040277522,inf,inf,inf,inf,1,1,1,1,6,3,3,1,1,1,0,0,0,0,0
637171670,637171211,0,nan,nan,0.339205,2.817079,-0.912465,-0.0027139783,-0.0017104149,0.008081913,0.15694241,0.007583581,-0.16122307,-0.115514845,-0.0031508233,0.0006665007,-0.00011949052,-1.4477209,-1.7902426,-0.78435075,1.5274535,0.00042588517,-0.028882295,1.5666031,3.4636265e-05,nan,0.28362536,0.06039214,0.037812296,0.07647352,0.04043282,inf,inf,inf,inf,1,1,1,1,6,3,3,1,1,1,0,0,0,0,0
637271616,637271188,0,nan,nan,0.35551956,2.8175085,-0.9186899,-0.0027139783,-0.0017104149,0.008081913,0.12416172,-0.017660897,-0.15127802,-0.10267155,-0.0031508233,0.0006665007,-0.00011949052,-1.6313709,1.0117652,-0.14692265,1.5318009,0.00042605703,-0.02456418,1.5666031,3.4593504e-05,nan,0.2898503,0.060399037,0.037816707,0.07623175,0.040434904,inf,inf,inf,inf,1,1,1,1,6,3,3,1,1,1,0,0,0,0,0
637361629,637361187,0,nan,nan,0.366776,2.8156273,-0.92311394,-0.0027139783,-0.0017104149,0.008081913,0.11565294,-0.03998218,-0.13392958,-0.08310194,-0.0031508233,0.0006665007,-0.00011949052,0.018029366,-0.26478004,-0.45263934,1.5360873,0.00042601375,-0.020235686,1.5666031,3.4485573e-05,nan,0.29427433,0.059810985,0.037537836,0.07555944,0.04028004,inf,inf,inf,inf,1,1,1,1,6,3,3,1,1,1,0,0,0,0,0
637471643,637471212,0,nan,nan,0.37693986,2.8116176,-0.9290625,-0.0027139783,-0.0017104149,0.008081913,0.082918204,-0.04746524,-0.16153374,-0.10832872,-0.0031508233,0.0006665007,-0.00011949052,0.6784651,1.1589308,-0.3367598,1.5415863,0.000426366,-0.014722643,1.5666031,3.4518118e-05,nan,0.30022287,0.060370058,0.03781965,0.07587928,0.0404337,inf,inf,inf,inf,1,1,1,1,6,3,3,1,1,1,0,0,0,0,0
637561691,637561211,0,nan,nan,0.38150376,2.8067958,-0.9372393,-0.0027139783,-0.0017104149,0.008081913,0.044632223,-0.07623469,-0.2003936,-0.14568847,-0.0031508233,0.0006665007,-0.00011949052,-2.992626,-0.6307807,-0.82022595,1.5469978,0.000426317,-0.009287874,1.5666031,3.441977e-05,nan,0.30839968,0.059772987,0.037537742,0.07535738,0.040278655,inf,inf,inf,inf,1,1,1,1,6,3,3,1,1,1,0,0,0,0,0
637671616,637671188,0,nan,nan,0.38245964,2.8000107,-0.95053124,-0.0027139783,-0.0017104149,0.008081913,0.028583895,-0.082454324,-0.21756496,-0.16117111,-0.0031508233,0.0006665007,-0.00011949052,0.4408428,-0.22733349,0.12701802,1.551734,0.00042667758,-0.0045626317,1.5666031,3.4462e-05,nan,0.32169163,0.060329948,0.037821762,0.07584978,0.040435385,inf,inf,inf,inf,1,1,1,1,6,3,3,1,1,1,0,0,0,0,0
637761671,637761206,0,nan,nan,0.3807807,2.7937212,-0.9622238,-0.0027139783,-0.0017104149,0.008081913,0.0051128557,-0.0892335,-0.21742965,-0.15987937,-0.0031508233,0.0006665007,-0.00011949052,-0.834769,-0.13897192,0.17415723,1.5535797,0.00042664338,-0.0027102148,1.5666031,3.437092e-05,nan,0.33338422,0.05974032,0.037539307,0.07548142,0.04028051,inf,inf,inf,inf,1,1,1,1,6,3,3,1,1,1,0,0,0,0,0
637871621,637871188,0,nan,nan,0.37567165,2.7862897,-0.9758042,-0.0027139783,-0.0017104149,0.008081913,-0.0058175046,-0.085322,-0.21393006,-0.15472522,-0.0031508233,0.0006665007,-0.00011949052,1.1025001,-1.2306279,0.2669735,1.5531374,0.00042702298,-0.0031700302,1.5666031,3.441769e-05,nan,0.3469646,0.060309343,0.03782358,0.07593003,0.040438134,inf,inf,inf,inf,1,1,1,1,6,3,3,1,1,1,0,0,0,0,0
637971625,637971188,0,nan,nan,0.3691251,2.780152,-0.9883157,-0.0027139783,-0.0017104149,0.008081913,-0.012064966,-0.08989133,-0.2275946,-0.16682816,-0.0031508233,0.0006665007,-0.00011949052,-0.012417292,-1.9646925,-0.56351894,1.5505803,0.0004272063,-0.0057089254,1.5666031,3.4397137e-05,nan,0.3594761,0.06030001,0.037822276,0.075895615,0.04043793,inf,inf,inf,inf,1,1,1,1,6,3,3,1,1,1,0,0,0,0,0
638061627,638061188,0,nan,nan,0.3624419,2.775487,-1.0014071,-0.0027139783,-0.0017104149,0.008081913,-0.014715396,-0.07803125,-0.24812202,-0.18599135,-0.0031508233,0.0006665007,-0.00011949052,0.9739616,-0.59203666,0.27986714,1.546288,0.0004271905,-0.00997672,1.5666031,3.4310266e-05,nan,0.37256753,0.059715565,0.037541647,0.075431556,0.04028411,inf,inf,inf,inf,1,1,1,1,6,3,3,1,1,1,0,0,0,0,0
638171629,638171190,0,nan,nan,0.35315153,2.7710633,-1.0188555,-0.0027139783,-0.0017104149,0.008081913,-0.021707572,-0.07473092,-0.25871363,-0.19484682,-0.0031508233,0.0006665007,-0.00011949052,0.25238445,0.47319508,-0.7598954,1.5403057,0.00042757986,-0.015934661,1.5666031,3.4361165e-05,nan,0.39001584,0.060285553,0.037823554,0.07588699,0.040440477,inf,inf,inf,inf,1,1,1,1,6,3,3,1,1,1,0,0,0,0,0
638261705,638261212,0,nan,nan,0.3450255,2.7680407,-1.0340827,-0.0027139783,-0.0017104149,0.008081913,-0.02480529,-0.07130403,-0.26853073,-0.203548,-0.0031508233,0.0006665007,-0.00011949052,0.42917573,-0.51743823,-0.5635955,1.5358661,0.0004275613,-0.020365236,1.5666031,3.4276596e-05,nan,0.40524304,0.05970593,0.037543014,0.07547138,0.040286716,inf,inf,inf,inf,1,1,1,1,6,3,3,1,1,1,0,0,0,0,0
638371645,638371211,0,nan,nan,0.3344621,2.7651966,-1.053708,-0.0027139783,-0.0017104149,0.008081913,-0.029854989,-0.057256795,-0.28039262,-0.2140778,-0.0031508233,0.0006665007,-0.00011949052,-0.94836366,0.35663435,-0.41963768,1.5306994,0.00042794377,-0.025497278,1.5666031,3.4327866e-05,nan,0.42486835,0.06027868,0.03782352,0.075902574,0.040441524,inf,inf,inf,inf,1,1,1,1,6,3,3,1,1,1,0,0,0,0,0
638461648,638461211,0,nan,nan,0.32596305,2.7636447,-1.0703926,-0.0027139783,-0.0017104149,0.008081913,-0.024634296,-0.04326106,-0.26919398,-0.2020976,-0.0031508233,0.0006665007,-0.00011949052,0.813633,0.44117606,1.1480635,1.5268488,0.00042791877,-0.029334152,1.5666031,3.4243894e-05,nan,0.441553,0.059700944,0.037542835,0.07547286,0.040287573,inf,inf,inf,inf,1,1,1,1,6,3,3,1,1,1,0,0,0,0,0
638571626,638571188,0,nan,nan,0.3155067,2.7618215,-1.0872287,-0.0027139783,-0.0017104149,0.008081913,-0.021324325,-0.04058907,-0.20907028,-0.14109127,-0.0031508233,0.0006665007,-0.00011949052,-1.6916969,-0.47434863,0.48126492,1.5235856,0.00042829715,-0.03259597,1.5666031,3.4296092e-05,nan,0.45838904,0.060276154,0.037824094,0.075910695,0.040443443,inf,inf,inf,inf,1,1,1,1,6,3,3,1,1,1,0,0,0,0,0
638671678,638671211,0,nan,nan,0.30681443,2.7595844,-1.0931836,-0.0027139783,-0.0017104149,0.008081913,-0.012514713,-0.040859595,-0.074052215,-0.0055813743,-0.0031508233,0.0006665007,-0.00011949052,-0.5819546,-0.41394982,1.5543611,1.5225494,0.00042847195,-0.033599507,1.5666031,3.428058e-05,nan,0.46434402,0.060273908,0.037823245,0.075845085,0.040443685,inf,inf,inf,inf,1,1,1,1,6,3,3,1,1,1,0,0,0,0,0
638761649,638761215,0,nan,nan,0.29991257,2.7568498,-1.0852112,-0.0027139783,-0.0017104149,0.008081913,-0.008523469,-0.038936704,0.07751698,0.14597672,-0.0031508233,0.0006665007,-0.00011949052,0.31968743,0.27023628,1.2279195,1.5236177,0.00042844468,-0.032471597,1.5666031,3.4198845e-05,nan,0.45637155,0.05969059,0.037542745,0.07522757,0.04028983,inf,inf,inf,inf,1,1,1,1,6,3,3,1,1,1,0,0,0,0,0
638871633,638871188,0,nan,nan,0.29260013,2.7529056,-1.0605426,-0.0027139783,-0.0017104149,0.008081913,-0.009675103,-0.032414395,0.20981643,0.27775955,-0.0031508233,0.0006665007,-0.00011949052,-0.881766,1.7674341,1.2798225,1.5271635,0.00042882512,-0.028856516,1.5666031,3.42575e-05,nan,0.43170297,0.06024065,0.037823994,0.07522485,0.0404456,inf,inf,inf,inf,1,1,1,1,6,3,3,1,1,1,0,0,0,0,0
638961640,638961190,0,nan,nan,0.2874529,2.7498238,-1.0306476,-0.0027139783,-0.0017104149,0.008081913,-0.0015609262,-0.04258863,0.30610675,0.37304398,-0.0031508233,0.0006665007,-0.00011949052,0.980749,-1.7235465,0.9062956,1.5310998,0.0004288008,-0.024909506,1.5666031,3.4189652e-05,nan,0.40180802,0.05962594,0.037543386,0.07438679,0.040291697,inf,inf,inf,inf,1,1,1,1,6,3,3,1,1,1,0,0,0,0,0
639071625,639071188,0,nan,nan,0.28224435,2.7463686,-0.9871092,-0.0027139783,-0.0017104149,0.008081913,-0.0071232035,-0.029473975,0.33514628,0.40027857,-0.0031508233,0.0006665007,-0.00011949052,-0.724515,0.5716298,0.038783807,1.5366882,0.0004291851,-0.019262824,1.5666031,3.4250028e-05,nan,0.35826957,0.060036052,0.037785396,0.0743802,0.040406086,inf,inf,inf,inf,1,1,1,1,6,3,3,1,1,1,0,0,0,0,0
639161632,639161188,0,nan,nan,0.2782825,2.7450395,-0.9542998,-0.0027139783,-0.0017104149,0.008081913,-0.005945828,-0.02051712,0.26715928,0.33060193,-0.0031508233,0.0006665007,-0.00011949052,0.47693038,1.1103314,-0.9086067,1.5414549,0.00042916497,-0.014480975,1.5666031,3.421397e-05,nan,0.3254602,0.05942287,0.037508745,0.073770404,0.040261004,inf,inf,inf,inf,1,1,1,1,6,3,3,1,1,1,0,0,0,0,0
639271657,639271211,0,nan,nan,0.2737187,2.745482,-0.9239232,-0.0027139783,-0.0017104149,0.008081913,-0.011627173,-0.017708216,0.16906166,0.23033063,-0.0031508233,0.0006665007,-0.00011949052,-1.1001415,0.42692122,-1.9276286,1.5475597,0.0004295522,-0.008391805,1.5666031,3.4325334e-05,nan,0.29508358,0.059936147,0.037792265,0.0742256,0.04042322,inf,inf,inf,inf,1,1,1,1,6,3,3,1,1,1,0,0,0,0,0
639371625,639371187,0,nan,nan,0.27129608,2.7474897,-0.9049097,-0.0027139783,-0.0017104149,0.008081913,0.008307676,-0.009460019,0.106612146,0.16583565,-0.0031508233,0.0006665007,-0.00011949052,0.17923146,0.831826,-0.32571074,1.5521281,0.0004297377,-0.003802571,1.5666031,3.437724e-05,nan,0.27607006,0.059909943,0.037797987,0.07453924,0.040430892,inf,inf,inf,inf,1,1,1,1,6,3,3,1,1,1,0,0,0,0,0
639461616,639461187,0,nan,nan,0.27069643,2.7509766,-0.8940002,-0.0027139783,-0.0017104149,0.008081913,0.016192988,-0.0038656746,0.04756503,0.10483425,-0.0031508233,0.0006665007,-0.00011949052,0.6745522,-1.2463442,0.18884434,1.5550225,0.00042971858,-0.00085167226,1.5666031,3.4363125e-05,nan,0.26516056,0.05933999,0.037519027,0.074422844,0.04028029,inf,inf,inf,inf,1,1,1,1,6,3,3,1,1,1,0,0,0,0,0
639571649,639571211,0,nan,nan,0.27000132,2.758442,-0.8866864,-0.0027139783,-0.0017104149,0.008081913,0.019756036,0.008240366,0.009262977,0.06393969,-0.0031508233,0.0006665007,-0.00011949052,2.4931912,0.5430738,1.2675961,1.5576986,0.00043010613,0.0018831706,1.5666031,3.4482808e-05,nan,0.25784677,0.059918135,0.037804987,0.07515203,0.040440116,inf,inf,inf,inf,1,1,1,1,6,3,3,1,1,1,0,0,0,0,0
639661653,639661211,0,nan,nan,0.26960433,2.7661192,-0.8836048,-0.0027139783,-0.0017104149,0.008081913,0.020952791,0.022736486,-0.00460148,0.047753546,-0.0031508233,0.0006665007,-0.00011949052,0.7360545,0.031225378,0.2617981,1.5595188,0.0004300861,0.0037131344,1.5666031,3.4461424e-05,nan,0.2547652,0.059375573,0.037525587,0.07494769,0.040288962,inf,inf,inf,inf,1,1,1,1,6,3,3,1,1,1,0,0,0,0,0
639771660,639771188,0,nan,nan,0.2699639,2.7777338,-0.88158685,-0.0027139783,-0.0017104149,0.008081913,0.028535139,0.026028844,-0.013435311,0.03598829,-0.0031508233,0.0006665007,-0.00011949052,0.92690116,-1.0517237,0.29353353,1.5603513,0.0004304713,0.004571624,1.5666031,3.4569443e-05,nan,0.25274724,0.059979886,0.037809715,0.07558174,0.040445264,inf,inf,inf,inf,1,1,1,1,6,3,3,1,1,1,0,0,0,0,0
639861634,639861188,0,nan,nan,0.27053115,2.7880554,-0.88126856,-0.0027139783,-0.0017104149,0.008081913,0.026631359,0.021478152,-0.02876397,0.018017989,-0.0031508233,0.0006665007,-0.00011949052,0.09031483,-0.6696122,-0.022560958,1.5608478,0.00043044557,0.0051021585,1.5666031,3.4533477e-05,nan,0.25242895,0.059444148,0.037531734,0.07525281,0.040292736,inf,inf,inf,inf,1,1,1,1,6,3,3,1,1,1,0,0,0,0,0
639971628,639971187,0,nan,nan,0.27031052,2.8001616,-0.883309,-0.0027139783,-0.0017104149,0.008081913,0.015151377,0.024509119,-0.050388053,-0.0069928127,-0.0031508233,0.0006665007,-0.00011949052,2.0485435,-1.1782309,0.5796466,1.5593808,0.00043082572,0.0036488608,1.5666031,3.4627185e-05,nan,0.2544694,0.060053673,0.037816092,0.075756654,0.04045038,inf,inf,inf,inf,1,1,1,1,6,3,3,1,1,1,0,0,0,0,0
640071625,640071188,0,nan,nan,0.27023557,2.8102436,-0.8859406,-0.0027139783,-0.0017104149,0.008081913,0.02518527,0.022635048,-0.037487403,0.0028240392,-0.0031508233,0.0006665007,-0.00011949052,1.7238313,0.14646915,0.6156972,1.5587459,0.00043099685,0.0030038583,1.5666031,3.464551e-05,nan,0.257101,0.06008626,0.037818994,0.0758295,0.040450852,inf,inf,inf,inf,1,1,1,1,6,3,3,1,1,1,0,0,0,0,0
640161656,640161188,0,nan,nan,0.27069554,2.8185987,-0.88786983,-0.0027139783,-0.0017104149,0.008081913,0.021203052,0.029372824,-0.014988174,0.022563385,-0.0031508233,0.0006665007,-0.00011949052,-1.7576411,1.9433895,1.3852522,1.5585036,0.00043096187,0.002772679,1.5666031,3.4589546e-05,nan,0.25903022,0.059543442,0.03753781,0.075464495,0.040294897,inf,inf,inf,inf,1,1,1,1,6,3,3,1,1,1,0,0,0,0,0
640271626,640271188,0,nan,nan,0.2712088,2.8270538,-0.88661623,-0.0027139783,-0.0017104149,0.008081913,0.018092878,0.0070369495,-0.008237884,0.026112404,-0.0031508233,0.0006665007,-0.00011949052,-1.3166919,-1.2998834,-1.151974,1.5573044,0.0004313345,0.0015782841,1.5666031,3.4665063e-05,nan,0.25777662,0.060147636,0.03782348,0.07588374,0.04045204,inf,inf,inf,inf,1,1,1,1,6,3,3,1,1,1,0,0,0,0,0
640361616,640361188,0,nan,nan,0.2718779,2.8324475,-0.889481,-0.0027139783,-0.0017104149,0.008081913,0.019576086,0.0017429565,-0.089227654,-0.057247322,-0.0031508233,0.0006665007,-0.00011949052,-1.2493274,-1.3114703,-1.0041038,1.5553062,0.00043129726,-0.00043225795,1.5666031,3.4599507e-05,nan,0.2606414,0.059594717,0.03754184,0.07536674,0.040296324,inf,inf,inf,inf,1,1,1,1,6,3,3,1,1,1,0,0,0,0,0
640471648,640471211,0,nan,nan,0.2742528,2.837637,-0.9089952,-0.0027139783,-0.0017104149,0.008081913,0.038295273,-0.007893811,-0.2943524,-0.26492763,-0.0031508233,0.0006665007,-0.00011949052,1.2863674,-0.13033979,-1.7423103,1.555334,0.00043166862,-0.00035976205,1.5666031,3.4668163e-05,nan,0.2801556,0.060181037,0.037825536,0.07580839,0.040450882,inf,inf,inf,inf,1,1,1,1,6,3,3,1,1,1,0,0,0,0,0
640561640,640561211,0,nan,nan,0.2769015,2.8397653,-0.94206256,-0.0027139783,-0.0017104149,0.008081913,0.0399893,-0.0107715735,-0.4392404,-0.41165447,-0.0031508233,0.0006665007,-0.00011949052,-0.6952201,-1.1585021,-1.3502997,1.5572388,0.00043163187,0.0015675548,1.5666031,3.459761e-05,nan,0.31322294,0.059623662,0.037543405,0.075625554,0.0402955,inf,inf,inf,inf,1,1,1,1,6,3,3,1,1,1,0,0,0,0,0
640671624,640671188,0,nan,nan,0.28148577,2.8417716,-0.9956514,-0.0027139783,-0.0017104149,0.008081913,0.053889383,0.0010994844,-0.54387033,-0.5178423,-0.0031508233,0.0006665007,-0.00011949052,-0.44583604,0.62079465,-0.7546685,1.5594894,0.00043200506,0.003859664,1.5666031,3.4656594e-05,nan,0.3668118,0.060240224,0.037827447,0.07666813,0.040450495,inf,inf,inf,inf,1,1,1,1,6,3,3,1,1,1,0,0,0,0,0
640771655,640771212,0,nan,nan,0.2857528,2.8423994,-1.0490474,-0.0027139783,-0.0017104149,0.008081913,0.039825004,-0.007717692,-0.538496,-0.51318485,-0.0031508233,0.0006665007,-0.00011949052,-1.0647585,-1.2624482,0.6145661,1.5604613,0.00043217427,0.0048561078,1.5666031,3.4634788e-05,nan,0.42020774,0.060301032,0.037826974,0.07706849,0.040450357,inf,inf,inf,inf,1,1,1,1,6,3,3,1,1,1,0,0,0,0,0
640861660,640861211,0,nan,nan,0.28900793,2.8413708,-1.0928116,-0.0027139783,-0.0017104149,0.008081913,0.040892895,-0.01498699,-0.48310998,-0.45787445,-0.0031508233,0.0006665007,-0.00011949052,1.8720201,-1.1693064,0.98400396,1.5608953,0.00043213682,0.0052994527,1.5666031,3.453051e-05,nan,0.46397197,0.059782043,0.03754655,0.07679109,0.040296543,inf,inf,inf,inf,1,1,1,1,6,3,3,1,1,1,0,0,0,0,0
640971622,640971188,0,nan,nan,0.29369867,2.8368323,-1.1404421,-0.0027139783,-0.0017104149,0.008081913,0.043407433,-0.017729593,-0.44334543,-0.41749114,-0.0031508233,0.0006665007,-0.00011949052,0.22131908,1.7631643,0.75720066,1.5606567,0.0004325085,0.0050971685,1.5666031,3.4550038e-05,nan,0.5116025,0.06042523,0.03782806,0.0770986,0.040450405,inf,inf,inf,inf,1,1,1,1,6,3,3,1,1,1,0,0,0,0,0
641061628,641061187,0,nan,nan,0.2980713,2.83146,-1.1752007,-0.0027139783,-0.0017104149,0.008081913,0.046556864,-0.026959272,-0.3804051,-0.35412595,-0.0031508233,0.0006665007,-0.00011949052,-0.79817057,-0.45998743,0.6869444,1.5601631,0.00043435823,0.004656434,1.5666031,3.516722e-05,nan,0.5463611,0.06595233,0.040462077,0.080932,0.04182244,inf,inf,inf,inf,1,1,1,1,6,3,3,1,1,1,0,0,0,0,0
641171624,641171188,0,nan,nan,0.3031372,2.825295,-1.2056499,-0.0027139783,-0.0017104149,0.008081913,0.04032508,-0.022495119,-0.1966866,-0.17120512,-0.0031508233,0.0006665007,-0.00011949052,-0.044265784,0.4892468,2.1766732,1.5584939,0.00043662952,0.0030387782,1.5666031,3.5929974e-05,nan,0.57681024,0.073322944,0.043905918,0.085714564,0.04344184,inf,inf,inf,inf,1,1,1,1,6,3,3,1,1,1,0,0,0,0,0
641261656,641261188,0,nan,nan,0.30699113,2.8211422,-1.2127242,-0.0027139783,-0.0017104149,0.008081913,0.03564583,-0.011677098,0.013931379,0.038070556,-0.0031508233,0.0006665007,-0.00011949052,-0.88351893,0.12861776,1.6395946,1.5575914,0.00043849545,0.0021736198,1.5666031,3.65605e-05,nan,0.5838846,0.07983624,0.04689309,0.08951026,0.044723514,inf,inf,inf,inf,1,1,1,1,6,3,3,1,1,1,0,0,0,0,0
641371660,641371211,0,nan,nan,0.3125489,2.8089235,-1.1951543,-0.0027139783,-0.0017104149,0.008081913,0.028908253,-0.021381536,0.19074804,0.21701382,-0.0031508233,0.0006665007,-0.00011949052,0.07000237,0.95449245,1.3618484,1.557565,0.00043691084,0.0021993648,1.5666031,3.4767992e-05,nan,0.5663147,0.06764317,0.04177209,0.07901776,0.041719325,inf,inf,inf,inf,1,1,1,1,6,3,3,1,1,1,0,0,0,0,0
641471622,641471190,0,nan,nan,0.31789637,2.793818,-1.1682012,-0.0027139783,-0.0017104149,0.008081913,0.024074852,-0.027766865,0.22014017,0.24909477,-0.0031508233,0.0006665007,-0.00011949052,-0.5954191,-0.4700044,-0.76775396,1.5581776,0.0004370591,0.0028800082,1.5666031,3.451955e-05,nan,0.5393616,0.065882914,0.04103057,0.07694094,0.041267425,inf,inf,inf,inf,1,1,1,1,6,3,3,1,1,1,0,0,0,0,0
641561642,641561188,0,nan,nan,0.32248512,2.779321,-1.1453693,-0.0027139783,-0.0017104149,0.008081913,0.021634972,-0.026085293,0.1642167,0.19564885,-0.0031508233,0.0006665007,-0.00011949052,0.7798632,-1.3249875,-0.42848077,1.5591953,0.000437001,0.003979103,1.5666031,3.43083e-05,nan,0.5165297,0.063889176,0.040123723,0.07523079,0.040797018,inf,inf,inf,inf,1,1,1,1,6,3,3,1,1,1,0,0,0,0,0
641671648,641671211,0,nan,nan,0.32757872,2.762112,-1.1243913,-0.0027139783,-0.0017104149,0.008081913,0.0032577543,-0.02480966,0.09231775,0.12671559,-0.0031508233,0.0006665007,-0.00011949052,-0.4517745,1.3286842,-0.6423304,1.5608104,0.00043735892,0.0056335228,1.5666031,3.4308636e-05,nan,0.4955517,0.06333509,0.0398882,0.07502,0.04073345,inf,inf,inf,inf,1,1,1,1,6,3,3,1,1,1,0,0,0,0,0
641761648,641761211,0,nan,nan,0.3308948,2.7488272,-1.1130183,-0.0027139783,-0.0017104149,0.008081913,-0.006465086,-0.027200852,0.0433017,0.079593405,-0.0031508233,0.0006665007,-0.00011949052,0.6505676,2.9891098,-0.45043084,1.5623462,0.00043730508,0.007215949,1.5666031,3.422433e-05,nan,0.48417866,0.061889958,0.03917648,0.07442951,0.040439878,inf,inf,inf,inf,1,1,1,1,6,3,3,1,1,1,0,0,0,0,0
641871618,641871188,0,nan,nan,0.33413008,2.7353323,-1.1034087,-0.0027139783,-0.0017104149,0.008081913,-0.014991497,-0.01597808,0.012133334,0.050099026,-0.0031508233,0.0006665007,-0.00011949052,-1.6927781,1.1887425,-1.516966,1.5633487,0.0004376673,0.0082706995,1.5666031,3.430825e-05,nan,0.47456908,0.06177151,0.03909772,0.07490349,0.040509805,inf,inf,inf,inf,1,1,1,1,6,3,3,1,1,1,0,0,0,0,0
641961639,641961188,0,nan,nan,0.33661422,2.726765,-1.0979748,-0.0027139783,-0.0017104149,0.008081913,-0.0067068376,-0.0013061833,-0.0006863022,0.037921052,-0.0031508233,0.0006665007,-0.00011949052,0.32662195,1.0356984,-0.25734705,1.5641036,0.00043761535,0.009112704,1.5666031,3.4274708e-05,nan,0.46913517,0.060696535,0.03852805,0.07456422,0.0403104,inf,inf,inf,inf,1,1,1,1,6,3,3,1,1,1,0,0,0,0,0
642071622,642071187,0,nan,nan,0.3398156,2.7198093,-1.0935497,-0.0027139783,-0.0017104149,0.008081913,-0.006738611,0.011630841,-0.01319591,0.02563257,-0.0031508233,0.0006665007,-0.00011949052,-0.272189,0.030352626,0.023900198,1.5655469,0.0004379783,0.010608833,1.5666031,3.4387158e-05,nan,0.46471012,0.060870167,0.038567174,0.075116366,0.040450044,inf,inf,inf,inf,1,1,1,1,6,3,3,1,1,1,0,0,0,0,0
642171646,642171188,0,nan,nan,0.34151697,2.7170434,-1.0912297,-0.0027139783,-0.0017104149,0.008081913,-0.023074694,0.021819595,-0.023077331,0.015419496,-0.0031508233,0.0006665007,-0.00011949052,-0.5301663,0.042987064,-0.221672,1.5677801,0.0004381308,0.012869993,1.5666031,3.4434495e-05,nan,0.46239007,0.06058612,0.038374722,0.075284965,0.040451556,inf,inf,inf,inf,1,1,1,1,6,3,3,1,1,1,0,0,0,0,0
642261640,642261188,0,nan,nan,0.34188432,2.717386,-1.0899084,-0.0027139783,-0.0017104149,0.008081913,-0.024311984,0.043015014,-0.022711758,0.015036415,-0.0031508233,0.0006665007,-0.00011949052,1.0429617,-0.43821502,0.41767976,1.5699972,0.00043807254,0.015088241,1.5666031,3.4413093e-05,nan,0.46106875,0.059823953,0.03794783,0.07500779,0.040311474,inf,inf,inf,inf,1,1,1,1,6,3,3,1,1,1,0,0,0,0,0
642371644,642371187,0,nan,nan,0.34216926,2.7206633,-1.088304,-0.0027139783,-0.0017104149,0.008081913,-0.023345811,0.051876813,0.00440664,0.040703084,-0.0031508233,0.0006665007,-0.00011949052,1.1570044,-1.7420868,1.2838161,1.5730649,0.00043842476,0.018201785,1.5666031,3.452501e-05,nan,0.45946443,0.060252916,0.03810787,0.07562137,0.040487926,inf,inf,inf,inf,1,1,1,1,6,3,3,1,1,1,0,0,0,0,0
642461630,642461188,0,nan,nan,0.34189725,2.7255569,-1.0867523,-0.0027139783,-0.0017104149,0.008081913,-0.035757497,0.06534082,-0.030297948,0.0043390007,-0.0031508233,0.0006665007,-0.00011949052,0.39210227,-0.9927579,-0.63214934,1.575515,0.00043835366,0.020690935,1.5666031,3.4495177e-05,nan,0.45791268,0.059602287,0.037741594,0.075325035,0.040356997,inf,inf,inf,inf,1,1,1,1,6,3,3,1,1,1,0,0,0,0,0
642571651,642571214,0,nan,nan,0.33970955,2.7336068,-1.09438,-0.0027139783,-0.0017104149,0.008081913,-0.043697502,0.078843646,-0.14537546,-0.11320517,-0.0031508233,0.0006665007,-0.00011949052,1.0142854,-1.0223278,-1.522818,1.5776201,0.00043868698,0.02279894,1.5666031,3.4596014e-05,nan,0.4655404,0.060118817,0.03795211,0.075807005,0.04053436,inf,inf,inf,inf,1,1,1,1,6,3,3,1,1,1,0,0,0,0,0
642661666,642661212,0,nan,nan,0.33679244,2.7414813,-1.1104099,-0.0027139783,-0.0017104149,0.008081913,-0.048500907,0.08364945,-0.21427828,-0.18448403,-0.0031508233,0.0006665007,-0.00011949052,-1.6917714,0.45206282,-0.6577154,1.5785007,0.00043859438,0.023484439,1.5666031,3.4555138e-05,nan,0.48157024,0.059528243,0.03762601,0.075593494,0.040399715,inf,inf,inf,inf,1,1,1,1,6,3,3,1,1,1,0,0,0,0,0
642771616,642771187,0,nan,nan,0.3330739,2.7529519,-1.1353719,-0.0027139783,-0.0017104149,0.008081913,-0.04066887,0.095017426,-0.23067632,-0.20421402,-0.0031508233,0.0006665007,-0.00011949052,0.96271735,-0.7705192,0.16750894,1.5804588,0.00043890596,0.025609499,1.5666031,3.464319e-05,nan,0.5065323,0.060111683,0.037871692,0.07643711,0.040571027,inf,inf,inf,inf,1,1,1,1,6,3,3,1,1,1,0,0,0,0,0
642871642,642871212,0,nan,nan,0.3278279,2.7644112,-1.1580422,-0.0027139783,-0.0017104149,0.008081913,-0.059493486,0.0989569,-0.20210749,-0.17892954,-0.0031508233,0.0006665007,-0.00011949052,-0.6750673,-0.06552746,0.27171195,1.5818752,0.00043899912,0.027068725,1.5666031,3.4652177e-05,nan,0.5292026,0.0601503,0.03785124,0.076668344,0.040585384,inf,inf,inf,inf,1,1,1,1,6,3,3,1,1,1,0,0,0,0,0
642961668,642961216,0,nan,nan,0.32119715,2.7746553,-1.1741331,-0.0027139783,-0.0017104149,0.008081913,-0.06313901,0.10488261,-0.115612656,-0.09546104,-0.0031508233,0.0006665007,-0.00011949052,0.88617736,0.7639653,1.5228472,1.582912,0.00043887435,0.028108733,1.5666031,3.4582154e-05,nan,0.54529345,0.059618298,0.037556063,0.07626076,0.040438645,inf,inf,inf,inf,1,1,1,1,6,3,3,1,1,1,0,0,0,0,0
643071620,643071188,0,nan,nan,0.31159148,2.7867649,-1.1805515,-0.0027139783,-0.0017104149,0.008081913,-0.073012576,0.10476164,0.03686869,0.05323719,-0.0031508233,0.0006665007,-0.00011949052,0.42295468,0.6498599,1.2987772,1.5836198,0.00043915852,0.028814662,1.5666031,3.4640674e-05,nan,0.5517119,0.0602399,0.037832066,0.076586604,0.040598642,inf,inf,inf,inf,1,1,1,1,6,3,3,1,1,1,0,0,0,0,0
643161624,643161188,0,nan,nan,0.3036563,2.795596,-1.1756837,-0.0027139783,-0.0017104149,0.008081913,-0.05942356,0.09970864,0.0932222,0.10656508,-0.0031508233,0.0006665007,-0.00011949052,0.8208463,0.65630823,-0.23834406,1.5834459,0.00043902016,0.02863783,1.5666031,3.45578e-05,nan,0.5468441,0.05969023,0.037546955,0.07585863,0.040445052,inf,inf,inf,inf,1,1,1,1,6,3,3,1,1,1,0,0,0,0,0
643271629,643271190,0,nan,nan,0.29454723,2.8040566,-1.169076,-0.0027139783,-0.0017104149,0.008081913,-0.06778224,0.08229056,0.063483484,0.07330482,-0.0031508233,0.0006665007,-0.00011949052,-1.0755949,0.44599554,-1.1568648,1.5805682,0.00043929595,0.025752107,1.5666031,3.4613386e-05,nan,0.54023635,0.060273483,0.03783196,0.07582168,0.04059996,inf,inf,inf,inf,1,1,1,1,6,3,3,1,1,1,0,0,0,0,0
643361640,643361192,0,nan,nan,0.28737205,2.8092315,-1.1663995,-0.0027139783,-0.0017104149,0.008081913,-0.06509276,0.070014454,0.053077362,0.06021087,-0.0031508233,0.0006665007,-0.00011949052,0.07079126,0.4370952,0.33997846,1.5769132,0.0004391557,0.022092972,1.5666031,3.4537898e-05,nan,0.53755987,0.05968549,0.037551373,0.07520471,0.040439565,inf,inf,inf,inf,1,1,1,1,6,3,3,1,1,1,0,0,0,0,0
643471683,643471211,0,nan,nan,0.27980682,2.8142319,-1.1650354,-0.0027139783,-0.0017104149,0.008081913,-0.059019327,0.06015721,0.03191983,0.036030807,-0.0031508233,0.0006665007,-0.00011949052,-0.3025152,-0.24706876,0.38544378,1.572832,0.00043943798,0.018008593,1.5666031,3.46046e-05,nan,0.53619576,0.060245372,0.037836056,0.07569479,0.040586066,inf,inf,inf,inf,1,1,1,1,6,3,3,1,1,1,0,0,0,0,0
643571632,643571188,0,nan,nan,0.2738981,2.8177612,-1.1653419,-0.0027139783,-0.0017104149,0.008081913,-0.04722778,0.051000148,0.018374132,0.02018271,-0.0031508233,0.0006665007,-0.00011949052,0.4099417,-0.29269361,0.18893239,1.5690358,0.00043952256,0.014221556,1.5666031,3.460725e-05,nan,0.53650224,0.060239032,0.03784212,0.07569309,0.040579062,inf,inf,inf,inf,1,1,1,1,6,3,3,1,1,1,0,0,0,0,0
643661644,643661190,0,nan,nan,0.2691054,2.82004,-1.1659449,-0.0027139783,-0.0017104149,0.008081913,-0.053684987,0.036867704,0.016478624,0.016591419,-0.0031508233,0.0006665007,-0.00011949052,-0.31770885,-1.1997956,0.036892954,1.564951,0.00043941036,0.010148783,1.5666031,3.4543817e-05,nan,0.5371053,0.059659015,0.03756448,0.07526196,0.040415004,inf,inf,inf,inf,1,1,1,1,6,3,3,1,1,1,0,0,0,0,0
643771657,643771210,0,nan,nan,0.26304492,2.821766,-1.1670843,-0.0027139783,-0.0017104149,0.008081913,-0.05754704,0.027645549,0.014324495,0.012636645,-0.0031508233,0.0006665007,-0.00011949052,-0.43317288,-0.016647395,0.11643063,1.5588024,0.00043972753,0.0040186327,1.5666031,3.4618293e-05,nan,0.5382447,0.060227856,0.03784919,0.07571133,0.040557962,inf,inf,inf,inf,1,1,1,1,6,3,3,1,1,1,0,0,0,0,0
643861680,643861211,0,nan,nan,0.25773662,2.822496,-1.1680504,-0.0027139783,-0.0017104149,0.008081913,-0.051202066,0.020497438,0.008494612,0.005478264,-0.0031508233,0.0006665007,-0.00011949052,1.3237547,0.46393663,-0.1484843,1.5526271,0.00043963993,-0.002142013,1.5666031,3.455725e-05,nan,0.5392108,0.05964964,0.037568282,0.075248,0.040392257,inf,inf,inf,inf,1,1,1,1,6,3,3,1,1,1,0,0,0,0,0
643971624,643971188,0,nan,nan,0.2518382,2.8222106,-1.1698023,-0.0027139783,-0.0017104149,0.008081913,-0.036107358,0.0022521368,0.00912239,0.0045786826,-0.0031508233,0.0006665007,-0.00011949052,2.367866,-1.0931001,0.51332414,1.545402,0.00043997908,-0.009353422,1.5666031,3.4633544e-05,nan,0.5409627,0.060219746,0.03785455,0.075655736,0.04053747,inf,inf,inf,inf,1,1,1,1,6,3,3,1,1,1,0,0,0,0,0
644061654,644061188,0,nan,nan,0.24762204,2.8214252,-1.1713362,-0.0027139783,-0.0017104149,0.008081913,-0.04074669,-0.0008586299,0.004968155,-0.00072555576,-0.0031508233,0.0006665007,-0.00011949052,0.09891454,0.39870793,-0.6692504,1.5405133,0.00043990792,-0.014235336,1.5666031,3.457337e-05,nan,0.54249656,0.059641,0.03757209,0.0752327,0.04037094,inf,inf,inf,inf,1,1,1,1,6,3,3,1,1,1,0,0,0,0,0
644171634,644171188,0,nan,nan,0.24268775,2.8207686,-1.1727308,-0.0027139783,-0.0017104149,0.008081913,-0.036712512,-0.009425868,0.015898136,0.008714585,-0.0031508233,0.0006665007,-0.00011949052,-1.5459965,-1.8820813,-0.6876925,1.5390158,0.0004402605,-0.015744867,1.5666031,3.4650307e-05,nan,0.5438912,0.06021196,0.03785745,0.075660355,0.040517792,inf,inf,inf,inf,1,1,1,1,6,3,3,1,1,1,0,0,0,0,0
644271624,644271188,0,nan,nan,0.23809187,2.8213086,-1.1735996,-0.0027139783,-0.0017104149,0.008081913,-0.038231697,0.010317337,0.02489776,0.01641626,-0.0031508233,0.0006665007,-0.00011949052,-0.07203868,-0.02966391,0.41992548,1.5414932,0.0004404061,-0.013265472,1.5666031,3.4658253e-05,nan,0.54476,0.0602063,0.03785586,0.07564299,0.040507287,inf,inf,inf,inf,1,1,1,1,6,3,3,1,1,1,0,0,0,0,0
644361626,644361188,0,nan,nan,0.23532212,2.8229604,-1.1733841,-0.0027139783,-0.0017104149,0.008081913,-0.019031119,0.009661986,0.03352002,0.023977207,-0.0031508233,0.0006665007,-0.00011949052,1.0779154,-0.6700634,0.14233525,1.5448426,0.00044034314,-0.009904577,1.5666031,3.459797e-05,nan,0.54454446,0.05962743,0.03757382,0.07518021,0.040343985,inf,inf,inf,inf,1,1,1,1,6,3,3,1,1,1,0,0,0,0,0
644471624,644471188,0,nan,nan,0.2331066,2.8247004,-1.1733156,-0.0027139783,-0.0017104149,0.008081913,-0.024475098,-0.0071838265,0.021131307,0.010382536,-0.0031508233,0.0006665007,-0.00011949052,1.0171046,-1.0371513,0.57755166,1.54908,0.00044069748,-0.0056697344,1.5666031,3.4674908e-05,nan,0.54447603,0.060196582,0.037855092,0.0755754,0.040491953,inf,inf,inf,inf,1,1,1,1,6,3,3,1,1,1,0,0,0,0,0
644561638,644561188,0,nan,nan,0.23121771,2.8246539,-1.1747297,-0.0027139783,-0.0017104149,0.008081913,-0.02173457,-0.023487784,0.011857953,0.00023610034,-0.0031508233,0.0006665007,-0.00011949052,-0.49191746,-0.8504606,0.04136171,1.5516381,0.00044063083,-0.0030797194,1.5666031,3.461502e-05,nan,0.5458901,0.059616968,0.037572496,0.0751091,0.040331256,inf,inf,inf,inf,1,1,1,1,6,3,3,1,1,1,0,0,0,0,0
644671650,644671210,0,nan,nan,0.22986016,2.8227792,-1.1762428,-0.0027139783,-0.0017104149,0.008081913,-0.012119086,-0.04598429,0.016850293,0.0042440556,-0.0031508233,0.0006665007,-0.00011949052,0.9693558,-1.4132905,0.5149877,1.5530466,0.00044097877,-0.001768863,1.5666031,3.4691722e-05,nan,0.5474032,0.060183242,0.03785166,0.07561667,0.04047798,inf,inf,inf,inf,1,1,1,1,6,3,3,1,1,1,0,0,0,0,0
644761647,644761211,0,nan,nan,0.22950464,2.8187149,-1.177564,-0.0027139783,-0.0017104149,0.008081913,0.0008033961,-0.075518206,0.011845019,-0.0013726591,-0.0031508233,0.0006665007,-0.00011949052,-0.7177323,-0.9189587,0.45496744,1.5519717,0.00044090353,-0.0027803297,1.5666031,3.4631143e-05,nan,0.5487244,0.059608504,0.037568647,0.07518144,0.040319048,inf,inf,inf,inf,1,1,1,1,6,3,3,1,1,1,0,0,0,0,0
644871626,644871188,0,nan,nan,0.23079692,2.8102,-1.1795325,-0.0027139783,-0.0017104149,0.008081913,0.01578653,-0.11259131,0.0085508125,-0.0053367354,-0.0031508233,0.0006665007,-0.00011949052,0.40873176,-0.7119106,-0.2145046,1.5494032,0.0004412396,-0.0054936353,1.5666031,3.47067e-05,nan,0.5506929,0.06018055,0.037848145,0.07562016,0.04046946,inf,inf,inf,inf,1,1,1,1,6,3,3,1,1,1,0,0,0,0,0
644971675,644971211,0,nan,nan,0.23250425,2.7980103,-1.1810039,-0.0027139783,-0.0017104149,0.008081913,0.013852086,-0.15400878,0.0128678745,-0.0015218208,-0.0031508233,0.0006665007,-0.00011949052,1.376061,-1.2694466,0.45590124,1.5464729,0.00044135572,-0.008520614,1.5666031,3.471301e-05,nan,0.5521643,0.06018078,0.037845206,0.075673714,0.04046633,inf,inf,inf,inf,1,1,1,1,6,3,3,1,1,1,0,0,0,0,0
645061652,645061211,0,nan,nan,0.23396303,2.7826786,-1.1819766,-0.0027139783,-0.0017104149,0.008081913,0.012334735,-0.19919103,0.009796698,-0.0048058787,-0.0031508233,0.0006665007,-0.00011949052,2.3180008,-1.265189,0.047829527,1.5439699,0.00044124786,-0.011034926,1.5666031,3.4649944e-05,nan,0.55313694,0.059608888,0.03756228,0.07526608,0.040309906,inf,inf,inf,inf,1,1,1,1,6,3,3,1,1,1,0,0,0,0,0
645171625,645171188,0,nan,nan,0.23559825,2.757935,-1.1834735,-0.0027139783,-0.0017104149,0.008081913,0.014454695,-0.25894985,0.008381802,-0.0062244306,-0.0031508233,0.0006665007,-0.00011949052,0.39439395,-1.7745243,0.25327826,1.5414538,0.00044153887,-0.013502052,1.5666031,3.4723118e-05,nan,0.55463386,0.060185473,0.0378419,0.075722724,0.04046353,inf,inf,inf,inf,1,1,1,1,6,3,3,1,1,1,0,0,0,0,0
645261617,645261188,0,nan,nan,0.23695934,2.7327642,-1.1842812,-0.0027139783,-0.0017104149,0.008081913,0.013542083,-0.31092188,0.011856918,-0.0025590102,-0.0031508233,0.0006665007,-0.00011949052,-0.6314422,-0.4471039,-0.6860397,1.5399983,0.00044138427,-0.014975662,1.5666031,3.465864e-05,nan,0.5554416,0.059615064,0.037559137,0.075348236,0.04030827,inf,inf,inf,inf,1,1,1,1,6,3,3,1,1,1,0,0,0,0,0
645371628,645371190,0,nan,nan,0.23855717,2.6957588,-1.1849241,-0.0027139783,-0.0017104149,0.008081913,0.015485981,-0.3776791,0.01424151,0.00033926967,-0.0031508233,0.0006665007,-0.00011949052,0.22591035,-2.1854918,0.9079399,1.539071,0.000441612,-0.01585044,1.5666031,3.473073e-05,nan,0.5560845,0.06019742,0.037839558,0.07586015,0.040465217,inf,inf,inf,inf,1,1,1,1,6,3,3,1,1,1,0,0,0,0,0
645461643,645461188,0,nan,nan,0.23968743,2.6604068,-1.1851648,-0.0027139783,-0.0017104149,0.008081913,0.0148939965,-0.42975083,0.0042287707,-0.0088473605,-0.0031508233,0.0006665007,-0.00011949052,-0.6868581,-1.4765064,-0.32349396,1.5385606,0.0004413751,-0.016140006,1.5666031,3.4665252e-05,nan,0.5563252,0.05963076,0.037557416,0.07548339,0.04031239,inf,inf,inf,inf,1,1,1,1,6,3,3,1,1,1,0,0,0,0,0
645571652,645571211,0,nan,nan,0.2410389,2.6118298,-1.1847787,-0.0027139783,-0.0017104149,0.008081913,0.028753852,-0.48547837,0.0028687965,-0.008474074,-0.0031508233,0.0006665007,-0.00011949052,-0.58839035,-1.3746754,-0.75213045,1.5383741,0.0004414985,-0.016263368,1.5666031,3.4736222e-05,nan,0.5559391,0.06021507,0.03783698,0.07600895,0.04046967,inf,inf,inf,inf,1,1,1,1,6,3,3,1,1,1,0,0,0,0,0
645671632,645671187,0,nan,nan,0.24237041,2.5625074,-1.1839267,-0.0027139783,-0.0017104149,0.008081913,0.024406152,-0.5431206,0.00046090258,-0.008661685,-0.0031508233,0.0006665007,-0.00011949052,-1.3914003,-2.847935,-0.21156463,1.5393434,0.00044134524,-0.015231681,1.5666031,3.4739292e-05,nan,0.5550871,0.06022984,0.03783817,0.07610474,0.04047414,inf,inf,inf,inf,1,1,1,1,6,3,3,1,1,1,0,0,0,0,0
645761635,645761188,0,nan,nan,0.24379288,2.51428,-1.1820345,-0.0027139783,-0.0017104149,0.008081913,0.037472304,-0.57972974,0.005695953,-0.0008442833,-0.0031508233,0.0006665007,-0.00011949052,-0.9596192,-1.6161181,-0.61654544,1.5418813,0.00044090502,-0.012584572,1.5666031,3.467369e-05,nan,0.5531949,0.05966809,0.037554618,0.075725436,0.040321026,inf,inf,inf,inf,1,1,1,1,6,3,3,1,1,1,0,0,0,0,0
645871649,645871211,0,nan,nan,0.24727616,2.451039,-1.1721721,-0.0027139783,-0.0017104149,0.008081913,0.08924829,-0.60697097,0.21164252,0.20942315,-0.0031508233,0.0006665007,-0.00011949052,0.24940772,-0.7232559,5.3274508,1.5701892,0.000440798,0.011162857,1.5666031,3.4745026e-05,nan,0.54333246,0.060260583,0.03783716,0.07620828,0.040479485,inf,inf,inf,inf,1,1,1,1,6,3,3,1,1,1,0,0,0,0,0
645961641,645961211,0,nan,nan,0.2546816,2.3981535,-1.1251001,-0.0027139783,-0.0017104149,0.008081913,0.10444276,-0.61903864,0.7828094,0.78480214,-0.0031508233,0.0006665007,-0.00011949052,-1.2237093,-1.1439877,6.9512978,1.6806871,0.00044018816,0.07164691,1.5666031,3.468024e-05,nan,0.49626052,0.059699267,0.037553977,0.075786516,0.0403256,inf,inf,inf,inf,1,1,1,1,6,3,3,1,1,1,0,0,0,0,0
646071656,646071188,0,nan,nan,0.25941455,2.3274176,-0.9894517,-0.0027139783,-0.0017104149,0.008081913,0.010077524,-0.7155866,1.583276,1.5904362,-0.0031508233,0.0006665007,-0.00011949052,-1.4269521,-0.83712465,7.820609,1.8768799,0.0004424852,0.10572204,1.5666031,3.54384e-05,nan,0.3606121,0.06636118,0.04077324,0.079954155,0.04201042,inf,inf,inf,inf,1,1,1,1,6,3,3,1,1,1,0,0,0,0,0
646161634,646161188,0,nan,nan,0.24915431,2.2623923,-0.81514454,-0.0027139783,-0.0017104149,0.008081913,-0.41285852,-0.45091513,1.0119226,1.0221931,-0.0031508233,0.0006665007,-0.00011949052,-41.665997,45.690067,-188.77911,1.9549537,0.00043887377,0.029943515,1.5666031,3.4553363e-05,nan,0.18630493,0.058832195,0.037222248,0.072611615,0.040030558,inf,inf,inf,inf,1,1,1,1,6,3,3,1,1,1,0,0,0,0,0
646271663,646271188,0,nan,nan,0.13354865,2.2886493,-0.736571,-0.0027139783,-0.0017104149,0.008081913,-1.1520311,0.30459398,0.83673066,0.85174614,-0.0031508233,0.0006665007,-0.00011949052,0.34556097,2.7664506,3.015886,1.8612487,0.00043805933,-0.14100185,1.5666031,3.4698493e-05,nan,0.1077314,0.059331745,0.03753172,0.071548015,0.040338233,inf,inf,inf,inf,1,1,1,1,6,3,3,1,1,1,0,0,0,0,0
646371628,646371188,0,nan,nan,-0.005401914,2.29593,-0.6825522,-0.0027139783,-0.0017104149,0.008081913,-1.3441172,-0.16925913,-0.13507193,-0.11445619,-0.0031508233,0.0006665007,-0.00011949052,-2.4779289,0.61361665,-4.9906363,1.7298683,0.00043618385,-0.22891037,1.5666031,3.4774588e-05,nan,0.053712606,0.059247736,0.037583794,0.12373924,0.09356221,inf,inf,inf,inf,1,1,1,1,6,3,3,1,1,1,0,0,0,0,0
646461665,646461188,0,nan,nan,-0.14249586,2.3006983,-0.6547376,-0.0027139783,-0.0017104149,0.008081913,-1.3037914,0.119591795,0.59333616,0.6225709,-0.0031508233,0.0006665007,-0.00011949052,4.6659265,-0.48003516,2.579385,1.5815357,0.0004338105,-0.3121308,1.5666031,3.4720084e-05,nan,0.088433206,0.059388243,0.038199294,0.13247657,0.104508206,inf,inf,inf,inf,1,1,1,1,6,3,3,1,1,1,0,0,0,0,0
646571612,646571186,0,nan,nan,-0.2789289,2.3121657,-0.5700378,-0.0027139783,-0.0017104149,0.008081913,-0.607563,-0.04147268,0.3421435,0.39626452,-0.0031508233,0.0006665007,-0.00011949052,7.6824164,8.474691,-7.136765,1.4298633,0.00043042537,-0.43789098,1.5666031,3.469884e-05,nan,0.12062171,0.0619205,0.040966872,0.13090314,0.10193455,inf,inf,inf,inf,1,1,1,1,6,3,3,1,1,1,0,0,0,0,0
646661632,646661187,0,nan,nan,-0.32624897,2.360188,-0.50870484,-0.0027139783,-0.0017104149,0.008081913,0.1704528,0.37916797,0.32259774,0.41217706,-0.0031508233,0.0006665007,-0.00011949052,6.0508776,-4.511387,5.2582417,1.3957258,0.00042854054,-0.4781104,1.5666031,3.45199e-05,nan,0.19001761,0.06299444,0.042785104,0.124944195,0.097712114,inf,inf,inf,inf,1,1,1,1,6,3,3,1,1,1,0,0,0,0,0
646771650,646771211,0,nan,nan,-0.33972737,2.4105446,-0.3741719,-0.0027139783,-0.0017104149,0.008081913,0.34939483,0.23475501,0.44244543,0.599461,-0.0031508233,0.0006665007,-0.00011949052,0.066792466,0.316934,0.66986126,1.386659,0.00042472983,-0.48571828,1.5666031,3.443962e-05,nan,0.24756688,0.06542922,0.045590967,0.1198051,0.09244612,inf,inf,inf,inf,1,1,1,1,6,3,3,1,1,1,0,0,0,0,0
646861660,646861211,0,nan,nan,-0.35953945,2.4592795,-0.23497285,-0.0027139783,-0.0017104149,0.008081913,0.17109402,0.3092,0.58577985,0.8091926,-0.0031508233,0.0006665007,-0.00011949052,-1.9086716,0.24582532,-2.855008,1.3407377,0.0004217757,-0.5234429,1.5666031,3.427156e-05,nan,0.27879733,0.0656201,0.046401687,0.1160316,0.08651444,inf,inf,inf,inf,1,1,1,1,6,3,3,1,1,1,0,0,0,0,0
646971621,646971188,0,nan,nan,-0.42183346,2.5260665,-0.0297628,-0.0027139783,-0.0017104149,0.008081913,-0.1436257,0.43015927,0.7595757,1.075474,-0.0031508233,0.0006665007,-0.00011949052,-1.7046103,1.3267394,-0.38293132,1.3300215,0.0004186152,-0.532402,1.5666031,3.4209166e-05,nan,0.29357687,0.06709343,0.04792528,0.11130236,0.080397636,inf,inf,inf,inf,1,1,1,1,6,3,3,1,1,1,0,0,0,0,0
647071648,647071211,0,nan,nan,-0.50735813,2.5948787,0.18571408,-0.0027139783,-0.0017104149,0.008081913,-0.28207916,0.49010348,0.81991565,1.2182949,-0.0031508233,0.0006665007,-0.00011949052,2.3779137,-1.5194966,0.13817987,1.3442508,0.00041673842,-0.5246723,1.5666031,3.409388e-05,nan,0.28482133,0.06733143,0.04821283,0.105545774,0.07447571,inf,inf,inf,inf,1,1,1,1,6,3,3,1,1,1,0,0,0,0,0
647161647,647161211,0,nan,nan,-0.59007376,2.6560333,0.39526093,-0.0027139783,-0.0017104149,0.008081913,-0.27185947,0.5278088,0.9257803,1.3897629,-0.0031508233,0.0006665007,-0.00011949052,-1.085775,0.56122017,0.62643534,1.3689599,0.00041456497,-0.50425804,1.5666031,3.392651e-05,nan,0.25740975,0.066468716,0.047526248,0.1001886,0.069036394,inf,inf,inf,inf,1,1,1,1,6,3,3,1,1,1,0,0,0,0,0
647271621,647271188,0,nan,nan,-0.68787676,2.7221403,0.66404504,-0.0027139783,-0.0017104149,0.008081913,-0.237417,0.4844704,1.0877959,1.6171445,-0.0031508233,0.0006665007,-0.00011949052,2.431259,-0.38099217,-2.101127,1.3650199,0.00041196452,-0.51030964,1.5666031,3.3860793e-05,nan,0.18810505,0.066986784,0.047687788,0.09696253,0.06443237,inf,inf,inf,inf,1,1,1,1,6,3,3,1,1,1,0,0,0,0,0
647361624,647361187,0,nan,nan,-0.7607945,2.7715206,0.8836844,-0.0027139783,-0.0017104149,0.008081913,-0.24630207,0.51279163,1.1870153,1.752962,-0.0031508233,0.0006665007,-0.00011949052,2.221645,-1.9469467,-2.221373,1.3656259,0.00040788393,-0.509966,1.5666031,3.369068e-05,nan,0.13433003,0.06583346,0.04662046,0.093668796,0.060275245,inf,inf,inf,inf,1,1,1,1,6,3,3,1,1,1,0,0,0,0,0
647471617,647471187,0,nan,nan,-0.84675515,2.8237553,1.1469505,-0.0027139783,-0.0017104149,0.008081913,-0.3446305,0.53359354,1.2798302,1.8710879,-0.0031508233,0.0006665007,-0.00011949052,-3.1426094,2.536861,3.5958328,1.3635145,0.00040361218,-0.5125361,1.5666031,3.3621393e-05,nan,0.04976034,0.06609349,0.046434253,0.09173575,0.056972295,inf,inf,inf,inf,1,1,1,1,6,3,3,1,1,1,0,0,0,0,0
647561652,647561187,0,nan,nan,-0.912626,2.8629313,1.3517494,-0.0027139783,-0.0017104149,0.008081913,-0.3814109,0.541032,1.2889135,1.8832371,-0.0031508233,0.0006665007,-0.00011949052,-0.03082109,0.3085025,-1.258071,1.3638743,0.0003995598,-0.5130376,1.5666031,3.3435e-05,nan,0.0,0.064891875,0.045280788,0.089289375,0.05401225,inf,inf,inf,inf,1,1,1,1,6,3,3,1,1,1,0,0,0,0,0
647671638,647671210,0,nan,nan,-0.9819873,2.903193,1.5854806,-0.0027139783,-0.0017104149,0.008081913,-0.4200957,0.5508715,1.3692135,1.9497122,-0.0031508233,0.0006665007,-0.00011949052,-3.8904169,1.79656,2.1082761,1.3709276,0.00039535566,-0.5070595,1.5666031,3.334415e-05,nan,0.0,0.0650853,0.044986464,0.08829494,0.051860068,inf,inf,inf,inf,1,1,1,1,6,3,3,1,1,1,0,0,0,0,0
647771617,647771188,0,nan,nan,-1.0313567,2.9316733,1.7790775,-0.0027139783,-0.0017104149,0.008081913,-0.38780037,0.5230123,1.3975205,1.9488391,-0.0031508233,0.0006665007,-0.00011949052,-1.552865,2.9661977,0.35976228,1.367906,0.0003913852,-0.51026833,1.5666031,3.3187025e-05,nan,0.0,0.06461089,0.04427866,0.087327145,0.050008096,inf,inf,inf,inf,1,1,1,1,6,3,3,1,1,1,0,0,0,0,0
647861633,647861188,0,nan,nan,-1.0633625,2.9526494,1.9359213,-0.0027139783,-0.0017104149,0.008081913,-0.37724096,0.51469505,1.4015989,1.914621,-0.0031508233,0.0006665007,-0.00011949052,-1.7325937,1.6369218,1.1461288,1.3707343,0.00038768962,-0.5067621,1.5666031,3.296045e-05,nan,0.0,0.06351555,0.043238617,0.085965626,0.048369166,inf,inf,inf,inf,1,1,1,1,6,3,3,1,1,1,0,0,0,0,0
647971647,647971210,0,nan,nan,-1.0872703,2.9710426,2.0982585,-0.0027139783,-0.0017104149,0.008081913,-0.3318394,0.49991247,1.3810477,1.8336004,-0.0031508233,0.0006665007,-0.00011949052,0.04051746,0.16189256,3.8040986,1.4062726,0.00038397987,-0.47020784,1.5666031,3.2834294e-05,nan,0.0,0.06378491,0.042980555,0.085992046,0.047350373,inf,inf,inf,inf,1,1,1,1,6,3,3,1,1,1,0,0,0,0,0
648061650,648061210,0,nan,nan,-1.096838,2.9836023,2.2189105,-0.0027139783,-0.0017104149,0.008081913,-0.35701004,0.48213544,1.3454502,1.7400452,-0.0031508233,0.0006665007,-0.00011949052,-0.4781164,-0.5192355,-1.3482606,1.4044255,0.00038063442,-0.47139168,1.5666031,3.258237e-05,nan,0.0,0.06280452,0.0420628,0.085066475,0.046268582,inf,inf,inf,inf,1,1,1,1,6,3,3,1,1,1,0,0,0,0,0
648171623,648171188,0,nan,nan,-1.0963552,2.9912949,2.3398232,-0.0027139783,-0.0017104149,0.008081913,-0.28396323,0.47018984,1.3333688,1.646703,-0.0031508233,0.0006665007,-0.00011949052,0.49457866,1.2150533,-2.8314395,1.3801628,0.00037725666,-0.49415743,1.5666031,3.24337e-05,nan,0.0,0.06317661,0.041885488,0.08533233,0.04573459,inf,inf,inf,inf,1,1,1,1,6,3,3,1,1,1,0,0,0,0,0
648261624,648261188,0,nan,nan,-1.084552,2.9992604,2.4156084,-0.0027139783,-0.0017104149,0.008081913,-0.26500812,0.4636904,1.3372564,1.5799474,-0.0031508233,0.0006665007,-0.00011949052,-0.61125565,-0.92854804,1.8050613,1.4079838,0.00037423035,-0.46552995,1.5666031,3.2159696e-05,nan,0.0,0.06229542,0.041092373,0.08472014,0.04503213,inf,inf,inf,inf,1,1,1,1,6,3,3,1,1,1,0,0,0,0,0
648371633,648371188,0,nan,nan,-1.0641919,3.000163,2.4888625,-0.0027139783,-0.0017104149,0.008081913,-0.24932036,0.42826238,1.2555656,1.4063329,-0.0031508233,0.0006665007,-0.00011949052,0.41378257,0.9139541,1.3345575,1.3834047,0.00037117585,-0.48936743,1.5666031,3.1999283e-05,nan,0.0,0.062741816,0.041006584,0.08518403,0.0447861,inf,inf,inf,inf,1,1,1,1,6,3,3,1,1,1,0,0,0,0,0
648471651,648471187,0,nan,nan,-1.0368296,3.0018172,2.5346768,-0.0027139783,-0.0017104149,0.008081913,-0.16965397,0.42080557,1.1393315,1.2051429,-0.0031508233,0.0006665007,-0.00011949052,0.06607736,-0.35352018,-0.58091813,1.3920319,0.00036834495,-0.48021233,1.5666031,3.1774187e-05,nan,0.0,0.062595874,0.040641684,0.08476873,0.044477038,inf,inf,inf,inf,1,1,1,1,6,3,3,1,1,1,0,0,0,0,0
648561640,648561189,0,nan,nan,-1.0081258,2.9998527,2.5598807,-0.0027139783,-0.0017104149,0.008081913,-0.15616661,0.39270672,1.1625867,1.1524967,-0.0031508233,0.0006665007,-0.00011949052,-0.186393,0.27957934,-0.71785694,1.4030675,0.00036575625,-0.4689784,1.5666031,3.1487667e-05,nan,0.0,0.06183577,0.040013343,0.084232874,0.04405536,inf,inf,inf,inf,1,1,1,1,6,3,3,1,1,1,0,0,0,0,0
648671653,648671187,0,nan,nan,-0.9692645,2.993255,2.570201,-0.0027139783,-0.0017104149,0.008081913,-0.073826365,0.36056742,1.0729547,0.96963346,-0.0031508233,0.0006665007,-0.00011949052,0.592826,0.24808641,-0.01894921,1.3816147,0.00036309578,-0.49057665,1.5666031,3.132676e-05,nan,0.0,0.062388796,0.040056113,0.08479934,0.04405383,inf,inf,inf,inf,1,1,1,1,6,3,3,1,1,1,0,0,0,0,0
648761620,648761187,0,nan,nan,-0.93315077,2.9868305,2.5643854,-0.0027139783,-0.0017104149,0.008081913,-0.020876419,0.35966745,0.9620978,0.7868234,-0.0031508233,0.0006665007,-0.00011949052,-0.22776149,-0.1589336,1.0427041,1.402161,0.00036073386,-0.47029823,1.5666031,3.1045616e-05,nan,0.0,0.06168258,0.03951676,0.0838646,0.04374403,inf,inf,inf,inf,1,1,1,1,6,3,3,1,1,1,0,0,0,0,0
648871656,648871211,0,nan,nan,-0.8908944,2.9734504,2.5522845,-0.0027139783,-0.0017104149,0.008081913,0.016640585,0.29908097,0.88689446,0.63654965,-0.0031508233,0.0006665007,-0.00011949052,0.3716837,0.53553444,-0.47164735,1.3872979,0.00035830162,-0.48580837,1.5666031,3.089908e-05,nan,0.0,0.062279567,0.043041416,0.08419964,0.04570136,inf,inf,inf,inf,1,1,1,1,6,3,3,1,1,1,0,0,0,0,0
648961652,648961211,0,nan,nan,-0.85777825,2.9623356,2.5562406,-0.0027139783,-0.0017104149,0.008081913,0.072901234,0.3067613,0.8495594,0.5661633,-0.0031508233,0.0006665007,-0.00011949052,0.0016842061,-0.011080551,-0.9436017,1.3924915,0.00035612582,-0.48113343,1.5666031,3.063279e-05,nan,0.0,0.06161525,0.046134025,0.08352398,0.047251366,inf,inf,inf,inf,1,1,1,1,6,3,3,1,1,1,0,0,0,0,0
649071625,649071188,0,nan,nan,-0.8228052,2.9446905,2.5751324,-0.0027139783,-0.0017104149,0.008081913,0.076131456,0.25259656,0.8307244,0.5305299,-0.0031508233,0.0006665007,-0.00011949052,0.1141766,0.17922409,-0.060777184,1.3989117,0.00035382944,-0.4755067,1.5666031,3.0504067e-05,nan,0.0,0.062229656,0.05015614,0.08379715,0.049110916,inf,inf,inf,inf,1,1,1,1,6,3,3,1,1,1,0,0,0,0,0
649171648,649171211,0,nan,nan,-0.7976397,2.927022,2.6046188,-0.0027139783,-0.0017104149,0.008081913,0.11346774,0.23542716,0.7695934,0.4693712,-0.0031508233,0.0006665007,-0.00011949052,0.37442952,0.0011540588,0.39399397,1.3878431,0.0003516708,-0.4873959,1.5666031,3.0321986e-05,nan,0.0,0.06220955,0.05402895,0.08349209,0.05074928,inf,inf,inf,inf,1,1,1,1,6,3,3,1,1,1,0,0,0,0,0
649261649,649261211,0,nan,nan,-0.77806234,2.909932,2.6383414,-0.0027139783,-0.0017104149,0.008081913,0.1254648,0.21730117,0.73263156,0.44046947,-0.0031508233,0.0006665007,-0.00011949052,-0.13001126,0.075012185,-0.08198598,1.4037483,0.0003496361,-0.47216898,1.5666031,3.008546e-05,nan,0.0,0.06155226,0.057667136,0.08253373,0.05218036,inf,inf,inf,inf,1,1,1,1,6,3,3,1,1,1,0,0,0,0,0
649371629,649371188,0,nan,nan,-0.7609467,2.885849,2.6882524,-0.0027139783,-0.0017104149,0.008081913,0.1335362,0.1675633,0.72520864,0.44938016,-0.0031508233,0.0006665007,-0.00011949052,0.45639175,0.12908605,-0.87235606,1.3911194,0.00034745614,-0.48569697,1.5666031,2.9995535e-05,nan,0.0,0.062161684,0.062335048,0.08272838,0.05391702,inf,inf,inf,inf,1,1,1,1,6,3,3,1,1,1,0,0,0,0,0
649461625,649461190,0,nan,nan,-0.748863,2.8657672,2.7325332,-0.0027139783,-0.0017104149,0.008081913,0.15912817,0.16812004,0.7128389,0.4533958,-0.0031508233,0.0006665007,-0.00011949052,0.0809002,-0.0063291504,0.026207544,1.3987406,0.00034547388,-0.4788004,1.5666031,2.9786821e-05,nan,0.0,0.061497375,0.06629018,0.08190039,0.055289518,inf,inf,inf,inf,1,1,1,1,6,3,3,1,1,1,0,0,0,0,0
649571622,649571187,0,nan,nan,-0.73781824,2.8386562,2.791318,-0.0027139783,-0.0017104149,0.008081913,0.14680761,0.11226138,0.7046231,0.46692294,-0.0031508233,0.0006665007,-0.00011949052,0.06674309,0.17643712,0.4262457,1.3996732,0.00034333862,-0.47877443,1.5666031,2.9729694e-05,nan,0.0,0.06208998,0.07133658,0.08197761,0.05696954,inf,inf,inf,inf,1,1,1,1,6,3,3,1,1,1,0,0,0,0,0
649663189,649662774,0,nan,nan,-0.8437547,2.7830062,-0.19792034,-0.116482735,-0.03476143,-3.003615,0.02753579,0.058237154,-0.057349235,-0.05742726,-0.14378373,-0.051412206,-0.72224444,0.23580723,-0.054653227,-0.2191501,1.3870296,0.00034556544,-0.5243613,-0.0073497295,2.837247e-05,nan,0.104996465,0.061097633,0.19099033,0.0795507,0.0796175,inf,inf,inf,inf,1,1,1,1,7,4,4,2,2,1,0,0,0,0,0
649763134,649762729,0,nan,nan,-0.8304141,2.75994,-0.20313185,-0.116482735,-0.03476143,-3.003615,0.029796144,0.026400605,-0.05523605,-0.054569054,-0.14378373,-0.051412206,-0.72224444,-0.20261957,-0.063763924,-0.3071146,1.3994062,0.00034334976,-0.5130937,-0.0073497295,2.8371958e-05,nan,0.11020798,0.061027393,0.19738042,0.07920129,0.08062849,inf,inf,inf,inf,1,1,1,1,7,4,4,2,2,1,0,0,0,0,0
649863127,649862729,0,nan,nan,-0.81999946,2.7353141,-0.20768026,-0.116482735,-0.03476143,-3.003615,0.038161356,-0.0017715191,-0.05234218,-0.050255943,-0.14378373,-0.051412206,-0.72224444,0.26221564,0.0041429414,-0.3872492,1.3890531,0.00034113426,-0.5246133,-0.0073497295,2.838522e-05,nan,0.11475638,0.06095353,0.20350103,0.07890682,0.081547335,inf,inf,inf,inf,1,1,1,1,7,4,4,2,2,1,0,0,0,0,0
649963125,649962729,0,nan,nan,-0.8093834,2.710862,-0.21396127,-0.116482735,-0.03476143,-3.003615,0.060128983,-0.0074199266,-0.07425968,-0.07066195,-0.14378373,-0.051412206,-0.72224444,-0.09194749,-0.03242553,0.36007223,1.398612,0.00033892406,-0.51618946,-0.0073497295,2.8411687e-05,nan,0.1210374,0.06087973,0.21000014,0.078579865,0.082548745,inf,inf,inf,inf,1,1,1,1,7,4,4,2,2,1,0,0,0,0,0
650063134,650062729,0,nan,nan,-0.8002937,2.6858742,-0.2191961,-0.116482735,-0.03476143,-3.003615,0.05488839,-0.05160298,-0.081453085,-0.07547717,-0.14378373,-0.051412206,-0.72224444,0.046486937,-0.021269353,0.15348949,1.3963535,0.00033671677,-0.5195283,-0.0073497295,2.8450422e-05,nan,0.12627223,0.06080719,0.21616408,0.0782468,0.08343984,inf,inf,inf,inf,1,1,1,1,7,4,4,2,2,1,0,0,0,0,0
650163155,650162729,0,nan,nan,-0.7917589,2.6611376,-0.22471215,-0.116482735,-0.03476143,-3.003615,0.07917535,-0.05042793,-0.10297403,-0.094474286,-0.14378373,-0.051412206,-0.72224444,0.1403545,-0.043161012,-0.45128933,1.395167,0.0003345202,-0.5217212,-0.0073497295,2.8498907e-05,nan,0.13178828,0.060729988,0.22231396,0.077943996,0.08431515,inf,inf,inf,inf,1,1,1,1,7,4,4,2,2,1,0,0,0,0,0
650263130,650262729,0,nan,nan,-0.7829705,2.6373029,-0.23112057,-0.116482735,-0.03476143,-3.003615,0.07413639,-0.082723066,-0.093273304,-0.08202266,-0.14378373,-0.051412206,-0.72224444,-0.13304996,-0.09049189,-0.2623213,1.4026331,0.00033233312,-0.5152339,-0.0073497295,2.8557912e-05,nan,0.1381967,0.060655292,0.2289444,0.07770133,0.08529986,inf,inf,inf,inf,1,1,1,1,7,4,4,2,2,1,0,0,0,0,0
650363228,650362773,0,nan,nan,-0.7752094,2.6137466,-0.23741685,-0.116482735,-0.03476143,-3.003615,0.08474503,-0.09445464,-0.103095174,-0.08902474,-0.14378373,-0.051412206,-0.72224444,0.28826165,-0.0498962,-0.10789877,1.3947934,0.00033015857,-0.5240419,-0.0073497295,2.8625587e-05,nan,0.14449298,0.06058099,0.2351099,0.07746558,0.08615363,inf,inf,inf,inf,1,1,1,1,7,4,4,2,2,1,0,0,0,0,0
650463126,650462729,0,nan,nan,-0.767124,2.5918484,-0.16010153,-0.116482735,-0.03476143,-3.003615,0.09316701,-0.10407556,-0.09589097,0.007335998,-0.14378373,-0.051412206,-0.72224444,-0.058503974,-0.12639482,0.343562,1.404056,0.00032796932,-0.51563686,-0.0073497295,2.865867e-05,nan,1.1131213,0.06045347,0.09265434,0.077114224,0.053838443,inf,inf,inf,inf,1,1,1,1,7,4,4,2,2,1,0,0,0,0,0
650563128,650562730,0,nan,nan,-0.76295555,2.5711823,0.18921237,-0.116482735,-0.03476143,-3.003615,0.084145196,-0.12980263,0.004133645,0.4401469,-0.14378373,-0.051412206,-0.72224444,0.12843002,-0.044235893,-0.25235432,1.3987535,0.0003258245,-0.52154255,-0.0073497295,2.8735103e-05,nan,0.8299226,0.060384218,0.069193445,0.076896705,0.05121333,inf,inf,inf,inf,1,1,1,1,7,4,4,2,2,1,0,0,0,0,0
650663146,650662729,0,nan,nan,-0.7562645,2.5508835,0.45938262,-0.116482735,-0.03476143,-3.003615,0.09992366,-0.125346,0.06863626,0.7141108,-0.14378373,-0.051412206,-0.72224444,0.036415204,-0.07653157,-0.34659666,1.401249,0.00032370034,-0.5195902,-0.0073497295,2.8817922e-05,nan,0.57790685,0.060321208,0.05827929,0.076731525,0.05078618,inf,inf,inf,inf,1,1,1,1,7,4,4,2,2,1,0,0,0,0,0
650763130,650762729,0,nan,nan,-0.74761707,2.5307643,0.65854025,-0.116482735,-0.03476143,-3.003615,0.09380216,-0.15192193,0.12722065,0.8818572,-0.14378373,-0.051412206,-0.72224444,-0.06599047,-0.05237382,-0.044806406,1.4037936,0.000321594,-0.51761746,-0.0073497295,2.8905039e-05,nan,0.39392734,0.060263727,0.051850278,0.07659688,0.050941456,inf,inf,inf,inf,1,1,1,1,7,4,4,2,2,1,0,0,0,0,0
650863138,650862729,0,nan,nan,-0.7379874,2.5105994,0.80001175,-0.116482735,-0.03476143,-3.003615,0.1087479,-0.15250492,0.13978584,0.9309752,-0.14378373,-0.051412206,-0.72224444,0.14801201,-0.013866392,0.039282016,1.399251,0.00031950953,-0.52280074,-0.0073497295,2.8993229e-05,nan,0.25245583,0.060204674,0.047685865,0.0764446,0.051271755,inf,inf,inf,inf,1,1,1,1,7,4,4,2,2,1,0,0,0,0,0
650963130,650962729,0,nan,nan,-0.7261411,2.4909627,0.894032,-0.116482735,-0.03476143,-3.003615,0.113070525,-0.16531217,0.14332484,0.920163,-0.14378373,-0.051412206,-0.72224444,-0.10757756,-0.10099182,0.14055066,1.4066285,0.00031744575,-0.5160974,-0.0073497295,2.9082457e-05,nan,0.15843558,0.060152058,0.04487412,0.07629841,0.051613964,inf,inf,inf,inf,1,1,1,1,7,4,4,2,2,1,0,0,0,0,0
651063179,651062773,0,nan,nan,-0.71346074,2.4710047,0.951249,-0.116482735,-0.03476143,-3.003615,0.11980018,-0.17993619,0.14042827,0.8690414,-0.14378373,-0.051412206,-0.72224444,0.19470024,-0.040693406,-0.3796537,1.4008926,0.0003154031,-0.5225777,-0.0073497295,2.9171119e-05,nan,0.10121858,0.060103025,0.042967904,0.076193504,0.051899195,inf,inf,inf,inf,1,1,1,1,7,4,4,2,2,1,0,0,0,0,0
651163130,651162729,0,nan,nan,-0.6987175,2.4520924,0.9791657,-0.116482735,-0.03476143,-3.003615,0.13688456,-0.17796187,0.12545674,0.78583807,-0.14378373,-0.051412206,-0.72224444,0.02217345,-0.1499353,-0.22731069,1.4060885,0.00031338542,-0.5181492,-0.0073497295,2.9258046e-05,nan,0.07330191,0.060057957,0.04169354,0.07611713,0.05207371,inf,inf,inf,inf,1,1,1,1,7,4,4,2,2,1,0,0,0,0,0
651263155,651262730,0,nan,nan,-0.68324167,2.433451,0.9846469,-0.116482735,-0.03476143,-3.003615,0.13653496,-0.19839865,0.11079101,0.69184583,-0.14378373,-0.051412206,-0.72224444,0.103124164,-0.060744222,-0.016650002,1.4052761,0.0003113905,-0.51975965,-0.0073497295,2.9342344e-05,nan,0.06782067,0.0600161,0.040876612,0.07604666,0.052123554,inf,inf,inf,inf,1,1,1,1,7,4,4,2,2,1,0,0,0,0,0
651363123,651362729,0,nan,nan,-0.6666101,2.4154882,0.97094893,-0.116482735,-0.03476143,-3.003615,0.15523776,-0.1939614,0.068376504,0.5642752,-0.14378373,-0.051412206,-0.72224444,0.14472757,-0.081566855,0.01833201,1.4045926,0.00030942247,-0.52124846,-0.0073497295,2.9423329e-05,nan,0.08151865,0.059979044,0.040391758,0.07596706,0.052038584,inf,inf,inf,inf,1,1,1,1,7,4,4,2,2,1,0,0,0,0,0
651463158,651462729,0,nan,nan,-0.64890444,2.3984253,0.94086146,-0.116482735,-0.03476143,-3.003615,0.15661891,-0.20682701,0.035572916,0.44460404,-0.14378373,-0.051412206,-0.72224444,-0.06928928,-0.09737294,-0.075692266,1.4092675,0.00030748046,-0.5173744,-0.0073497295,2.9500816e-05,nan,0.11160612,0.059948485,0.04013606,0.07590417,0.05181667,inf,inf,inf,inf,1,1,1,1,7,4,4,2,2,1,0,0,0,0,0
651563128,651562730,0,nan,nan,-0.63157463,2.3819065,0.8974447,-0.116482735,-0.03476143,-3.003615,0.1684499,-0.21020344,-0.004525638,0.3190876,-0.14378373,-0.051412206,-0.72224444,0.1633744,-0.008296766,-0.34991223,1.4048281,0.00030556606,-0.5226226,-0.0073497295,2.9573024e-05,nan,0.15502286,0.059916772,0.040034305,0.075873785,0.051473856,inf,inf,inf,inf,1,1,1,1,7,4,4,2,2,1,0,0,0,0,0
651663126,651662729,0,nan,nan,-0.61365634,2.3666456,0.8417161,-0.116482735,-0.03476143,-3.003615,0.17826052,-0.21009168,-0.048493024,0.19336733,-0.14378373,-0.051412206,-0.72224444,-0.05899724,-0.10910731,0.008226438,1.410665,0.00030368098,-0.5175716,-0.0073497295,2.9641333e-05,nan,0.21075147,0.059891224,0.040026348,0.07584908,0.051018063,inf,inf,inf,inf,1,1,1,1,7,4,4,2,2,1,0,0,0,0,0
651763188,651762774,0,nan,nan,-0.59612995,2.351755,0.77613354,-0.116482735,-0.03476143,-3.003615,0.18061393,-0.2214719,-0.09575619,0.06914775,-0.14378373,-0.051412206,-0.72224444,0.106797844,0.01084136,0.008784652,1.4076762,0.00030182398,-0.5213317,-0.0073497295,2.9705392e-05,nan,0.27633405,0.059869047,0.040071506,0.075821586,0.05048318,inf,inf,inf,inf,1,1,1,1,7,4,4,2,2,1,0,0,0,0,0
651863128,651862729,0,nan,nan,-0.5777761,2.3380203,0.700063,-0.116482735,-0.03476143,-3.003615,0.19441457,-0.21411215,-0.15778129,-0.06545855,-0.14378373,-0.051412206,-0.72224444,0.020000959,-0.11927085,-0.09721384,1.4098775,0.0002999977,-0.51986176,-0.0073497295,2.9765091e-05,nan,0.3524046,0.059850674,0.040132858,0.07579286,0.04987993,inf,inf,inf,inf,1,1,1,1,7,4,4,2,2,1,0,0,0,0,0
651963128,651962729,0,nan,nan,-0.55881834,2.3247516,0.6142968,-0.116482735,-0.03476143,-3.003615,0.19329923,-0.2232135,-0.20595922,-0.18156989,-0.14378373,-0.051412206,-0.72224444,0.060991697,-0.06909854,-0.2241241,1.4113863,0.00029820035,-0.51906615,-0.0073497295,2.9820689e-05,nan,0.4381708,0.059834838,0.04019337,0.07578385,0.04923743,inf,inf,inf,inf,1,1,1,1,7,4,4,2,2,1,0,0,0,0,0
652063123,652062729,0,nan,nan,-0.539077,2.3122344,0.5202583,-0.116482735,-0.03476143,-3.003615,0.20598097,-0.2186278,-0.26474407,-0.30257905,-0.14378373,-0.051412206,-0.72224444,0.18541268,-0.069292404,-0.28432342,1.4092106,0.00029643398,-0.52193964,-0.0073497295,2.9872557e-05,nan,0.5322093,0.059822343,0.040234923,0.07579705,0.048575196,inf,inf,inf,inf,1,1,1,1,7,4,4,2,2,1,0,0,0,0,0
652163132,652162729,0,nan,nan,-0.51666486,2.301062,0.418743,-0.116482735,-0.03476143,-3.003615,0.21094549,-0.21918043,-0.32034543,-0.41407338,-0.14378373,-0.051412206,-0.72224444,0.009161185,-0.14326702,0.015635598,1.4137692,0.00029556823,-0.5180227,-0.0073497295,2.9922787e-05,nan,0.6337246,0.059815228,0.04025669,0.07579842,0.047910787,inf,inf,inf,inf,1,1,1,1,7,4,4,2,2,1,0,0,0,0,0
652263128,652262729,0,nan,nan,-0.4921118,2.2908843,0.31188807,-0.116482735,-0.03476143,-3.003615,0.22036177,-0.2204081,-0.38124815,-0.5241911,-0.14378373,-0.051412206,-0.72224444,0.16549627,0.0018022419,-0.0954246,1.4101803,0.00029471802,-0.5221346,-0.0073497295,2.996856e-05,nan,0.7405795,0.059805587,0.040246062,0.07580043,0.04726136,inf,inf,inf,inf,1,1,1,1,7,4,4,2,2,1,0,0,0,0,0
652363123,652362729,0,nan,nan,-0.46372756,2.2829394,0.20052528,-0.116482735,-0.03476143,-3.003615,0.23553668,-0.2112062,-0.44254765,-0.6274213,-0.14378373,-0.051412206,-0.72224444,-0.011152208,-0.117407694,-0.10566251,1.4136314,0.00029388405,-0.5190535,-0.0073497295,3.001152e-05,nan,0.8519423,0.059800927,0.040213346,0.07580151,0.046637483,inf,inf,inf,inf,1,1,1,1,7,4,4,2,2,1,0,0,0,0,0
652463186,652462773,0,nan,nan,-0.43164283,2.2766113,0.08780216,-0.116482735,-0.03476143,-3.003615,0.24389295,-0.21289288,-0.48902956,-0.7072217,-0.14378373,-0.051412206,-0.72224444,0.051680803,-0.0012323731,-0.2218185,1.4122545,0.00029306515,-0.5206801,-0.0073497295,3.0051426e-05,nan,0.9646654,0.059797745,0.040154003,0.075821236,0.04605066,inf,inf,inf,inf,1,1,1,1,7,4,4,2,2,1,0,0,0,0,0
652563153,652562729,0,nan,nan,-0.39446652,2.273057,-0.02422724,-0.116482735,-0.03476143,-3.003615,0.26712528,-0.1999264,-0.5420317,-0.7841463,-0.14378373,-0.051412206,-0.72224444,0.058282968,-0.041491926,-0.1376674,1.412103,0.0002922624,-0.52096134,-0.0073497295,3.008825e-05,nan,1.0766948,0.059796397,0.04007442,0.07584374,0.045505047,inf,inf,inf,inf,1,1,1,1,7,4,4,2,2,1,0,0,0,0,0
652663133,652662729,0,nan,nan,-0.3513322,2.2720375,-0.13347319,-0.116482735,-0.03476143,-3.003615,0.28212696,-0.19431585,-0.58371466,-0.8401663,-0.14378373,-0.051412206,-0.72224444,-0.015478803,-0.05645618,-0.010783977,1.4139318,0.0002914746,-0.519146,-0.0073497295,3.012201e-05,nan,1.1859407,0.05979566,0.039980795,0.07584928,0.04500476,inf,inf,inf,inf,1,1,1,1,7,4,4,2,2,1,0,0,0,0,0
652763153,652762729,0,nan,nan,-0.30100185,2.2728848,-0.23915553,-0.116482735,-0.03476143,-3.003615,0.31086558,-0.18324597,-0.6275598,-0.8903401,-0.14378373,-0.051412206,-0.72224444,0.17690359,-0.008127431,-0.14908323,1.4108982,0.00029070312,-0.52211267,-0.0073497295,3.0153053e-05,nan,1.2916231,0.059796892,0.03987264,0.07586314,0.044553988,inf,inf,inf,inf,1,1,1,1,7,4,4,2,2,1,0,0,0,0,0
652863142,652862730,0,nan,nan,-0.24251445,2.2752068,-0.34151763,-0.116482735,-0.03476143,-3.003615,0.3402069,-0.17124501,-0.66059715,-0.9229161,-0.14378373,-0.051412206,-0.72224444,0.036215257,-0.122966744,-0.17488989,1.4138997,0.0002899477,-0.5189888,-0.0073497295,3.0181789e-05,nan,1.3939853,0.059801508,0.039760176,0.075874336,0.044149306,inf,inf,inf,inf,1,1,1,1,7,4,4,2,2,1,0,0,0,0,0
652963138,652962730,0,nan,nan,-0.17620514,2.2780447,-0.4390954,-0.116482735,-0.03476143,-3.003615,0.37211218,-0.16400692,-0.68609524,-0.9415635,-0.14378373,-0.051412206,-0.72224444,0.17760614,0.010008487,-0.27832556,1.4109457,0.000289208,-0.5218029,-0.0073497295,3.0206736e-05,nan,1.491563,0.05980148,0.039637487,0.07589448,0.04379021,inf,inf,inf,inf,1,1,1,1,7,4,4,2,2,1,0,0,0,0,0
653063147,653062730,0,nan,nan,-0.099202864,2.2822945,-0.5315207,-0.116482735,-0.03476143,-3.003615,0.4154043,-0.14653635,-0.7135035,-0.95605177,-0.14378373,-0.051412206,-0.72224444,-0.044756606,0.10115567,-0.114764184,-1.9288342,0.100000024,-0.52016836,2.9419277,3.016437e-05,nan,1.5839883,0.059804574,0.039517242,0.07591554,0.043474425,inf,inf,inf,inf,1,1,1,1,7,4,4,2,3,1,0,0,0,0,0
653163202,653162777,0,nan,nan,-0.010477591,2.288569,-0.6168114,-0.116482735,-0.03476143,-3.003615,0.44795915,-0.1201739,-0.7302727,-0.9535136,-0.14378373,-0.051412206,-0.72224444,-0.08757053,0.019265188,-0.036510836,-1.9294578,0.05000006,-0.52054185,2.9419277,2.9544775e-05,nan,1.669279,0.059809033,0.039394993,0.07627291,0.043189783,inf,inf,inf,inf,1,1,1,1,7,4,4,2,3,1,0,0,0,0,0
653263144,653262730,0,nan,nan,0.08978389,2.2960436,-0.6942934,-0.116482735,-0.03476143,-3.003615,0.46835417,-0.101435855,-0.7476653,-0.9459436,-0.14378373,-0.051412206,-0.72224444,-0.10714024,0.017478136,-0.13905185,-1.9322703,0.033333257,-0.5216048,2.9419277,2.8935874e-05,nan,1.746761,0.05982224,0.03927766,0.07702198,0.042943824,inf,inf,inf,inf,1,1,1,1,7,4,4,2,3,1,0,0,0,0,0
653363146,653362730,0,nan,nan,0.20277052,2.3034465,-0.7640571,-0.116482735,-0.03476143,-3.003615,0.5092055,-0.08250862,-0.7511429,-0.9197964,-0.14378373,-0.051412206,-0.72224444,0.04152635,0.046575833,-0.14484617,-1.9345345,0.024999477,-0.519619,2.9419277,2.8324583e-05,nan,1.8165247,0.059853602,0.03916199,0.07801241,0.04273471,inf,inf,inf,inf,1,1,1,1,7,4,4,2,3,1,0,0,0,0,0
653463139,653462730,0,nan,nan,0.33246538,2.3090992,-0.82652736,-0.116482735,-0.03476143,-3.003615,0.56072336,-0.06793942,-0.75408,-0.8902576,-0.14378373,-0.051412206,-0.72224444,-0.09636702,-0.043058548,-0.21193641,-1.9407945,0.019998817,-0.5221757,2.9419277,2.7701048e-05,nan,0.32504362,0.059915863,0.03905459,0.07927715,0.04255529,inf,inf,inf,inf,1,1,1,1,7,4,4,2,3,1,0,0,1,0,0
653563146,653562730,0,nan,nan,0.4812287,2.3125863,-0.8817506,-0.116482735,-0.03476143,-3.003615,0.6280762,-0.057561498,-0.7539696,-0.85504735,-0.14378373,-0.051412206,-0.72224444,0.03331919,0.12706622,-0.048908785,-1.9417847,0.016664686,-0.519828,2.9419277,2.7058659e-05,nan,0.38026685,0.06002071,0.038952775,0.08060989,0.042408034,inf,inf,inf,inf,1,1,1,1,7,4,4,2,3,1,0,0,1,0,0
653663146,653662730,0,nan,nan,0.6440913,2.3143897,-0.92837256,-0.116482735,-0.03476143,-3.003615,0.70868164,-0.04592062,-0.7468319,-0.8101535,-0.14378373,-0.051412206,-0.72224444,-0.0690583,0.05559291,-0.15822369,-1.9469457,0.014284462,-0.52159786,2.9419277,2.7275415e-05,nan,0.42688882,0.066334255,0.038859017,0.08666481,0.042283393,inf,inf,inf,inf,1,1,1,1,7,4,4,2,3,1,0,0,1,0,0
653763195,653762730,0,nan,nan,0.79227984,2.3149061,-0.968687,-0.116482735,-0.03476143,-3.003615,0.7633614,-0.039766666,-0.740512,-0.7659155,-0.14378373,-0.051412206,-0.72224444,0.021291131,0.1132627,-0.2267688,-1.949349,0.012499265,-0.520905,2.9419277,2.7503429e-05,nan,0.46720326,0.07335978,0.038772143,0.09285535,0.042180292,inf,inf,inf,inf,1,1,1,1,7,4,4,2,3,1,0,0,1,0,0
653863251,653862776,0,nan,nan,0.92893445,2.314528,-1.0033451,-0.116482735,-0.03476143,-3.003615,0.81374246,-0.03141394,-0.72389257,-0.712073,-0.14378373,-0.051412206,-0.72224444,0.05541566,0.10025721,-0.1804276,-1.9509845,0.011110747,-0.52061296,2.9419277,2.7742066e-05,nan,0.5018614,0.08109674,0.038693223,0.099161476,0.042095087,inf,inf,inf,inf,1,1,1,1,7,4,4,2,3,1,0,0,1,0,0
